Counter	Temperature	VelInc_X	VelInc_Y	VelInc_Z	OriInc_w	OriInc_x	OriInc_y	OriInc_z	Acc_X	Acc_Y	Acc_Z	Gyr_X	Gyr_Y	Gyr_Z	Mag_X	Mag_Y	Mag_Z	Pressure	Roll	Pitch	Yaw	RSSI
56278	0	0.383609772	0.051891327	0.059770584	0.999999046	-0.000574112	-0.000347137	3.34E-05	9.590244293	1.297283173	1.494264603	-0.028705599	-0.017356874	0.00166893	-0.905517578	0.498535156	-0.030517578	891.56	39.96197542	-78.35001958	-139.4872643	-53
56279	0	0.386901855	0.051391602	0.06060791	0.999999046	-0.000328064	3.91E-05	-0.000179291	9.672546387	1.284790039	1.515197754	-0.016403199	0.001955032	-0.008964539	-0.907958984	0.500732422	-0.030517578	891.42	40.01961787	-78.32245648	-139.5837662	-52
56280	0	0.387182236	0.053442001	0.06201458	0.999999046	-0.000189781	-0.000131607	9.44E-05	9.679555893	1.336050034	1.550364494	-0.00948906	-0.006580353	0.004720688	-0.905517578	0.498535156	-0.027587891	891.56	40.03770942	-78.32994995	-139.628352	-52
56281	0	0.387878418	0.052612305	0.059326172	0.999999046	-0.000495911	-0.000174522	3.43E-05	9.696960449	1.315307617	1.483154297	-0.024795533	-0.00872612	0.001716614	-0.907958984	0.498779297	-0.024658203	891.52	40.06199493	-78.33682835	-139.7194285	-52
56282	0	0.389000893	0.052647591	0.059607506	0.999999046	-0.000156403	0.000190735	-2.29E-05	9.725022316	1.316189766	1.490187645	-0.007820129	0.009536743	-0.001144409	-0.905517578	0.498535156	-0.024658203	891.52	40.01942531	-78.3074978	-139.7021679	-52
56283	0	0.387878418	0.051086426	0.061279297	0.999999046	-3.05E-05	0.000630379	8.39E-05	9.696960449	1.277160645	1.531982422	-0.001525879	0.031518938	0.004196167	-0.907958984	0.498779297	-0.024658203	891.5	39.7904615	-78.24739587	-139.482336	-53
56284	0	0.38676548	0.050894737	0.066468239	0.999998093	0.00063324	0.001284599	-0.000148773	9.669137001	1.272368431	1.661705971	0.031661998	0.064229987	-0.007438662	-0.905761719	0.500732422	-0.027832031	891.5	39.50924633	-78.11220227	-139.1295791	-53
56285	0	0.385925293	0.054931641	0.064208984	0.999998093	0.000592232	0.001319885	-4.96E-05	9.648132324	1.373291016	1.605224609	0.029611598	0.065994286	-0.002479554	-0.91015625	0.496337891	-0.032958984	891.44	39.17740908	-77.98054943	-138.7280315	-53
56286	0	0.382695198	0.053092957	0.065888405	0.999999046	0.000200272	0.00112915	8.68E-05	9.567379951	1.327323914	1.647210121	0.010013583	0.056457532	0.004339219	-0.91015625	0.498535156	-0.035888672	891.58	38.81567791	-77.87507296	-138.3397931	-53
56287	0	0.379943848	0.050109863	0.064941406	0.999999046	-6.48E-05	0.000535011	0.000137329	9.498596191	1.252746582	1.623535156	-0.003242493	0.026750566	0.006866455	-0.909912109	0.496337891	-0.038818359	891.58	38.60476925	-77.82594079	-138.1337273	-53
56288	0	0.383430481	0.050544739	0.062976837	0.999999046	0.000123024	0.000387192	6.10E-05	9.585762024	1.263618469	1.574420929	0.0061512	0.019359589	0.003051758	-0.91015625	0.496337891	-0.035888672	891.42	38.49721568	-77.78460415	-138.0184108	-53
56289	0	0.387329102	0.051696777	0.066040039	0.999999046	0.000324249	0.000267982	0.000267029	9.683227539	1.292419434	1.651000977	0.016212464	0.013399125	0.013351441	-0.907714844	0.496337891	-0.038818359	891.52	38.36696673	-77.76860521	-137.8517537	-53
56290	0	0.38860321	0.051042557	0.064382553	0.999999046	0.000192642	3.81E-06	0.000236511	9.715080261	1.276063919	1.609563828	0.009632111	0.000190735	0.011825562	-0.907470703	0.496337891	-0.041748047	891.52	38.32102537	-77.77424504	-137.7817809	-53
56291	0	0.387023926	0.051330566	0.064697266	0.999999046	0.000339508	0.000191689	0.000240326	9.675598145	1.28326416	1.617431641	0.016975403	0.009584427	0.012016297	-0.907470703	0.496337891	-0.041748047	891.56	38.22872851	-77.76331429	-137.6486733	-52
56292	0	0.386169434	0.053324699	0.065662384	0.999999046	0.000313759	0.000324249	0.000300407	9.65423584	1.333117485	1.641559601	0.015687943	0.016212464	0.015020371	-0.907714844	0.498535156	-0.0390625	891.52	38.06578611	-77.74459782	-137.4526843	-53
56293	0	0.385559082	0.055053711	0.065856934	0.999999046	0.000190735	0.000348091	0.000324249	9.638977051	1.376342773	1.64642334	0.009536744	0.017404557	0.016212464	-0.907714844	0.498535156	-0.0390625	891.5	37.87223981	-77.72518705	-137.2414693	-52
56294	0	0.384206772	0.05513382	0.064087868	0.999999046	-0.000276566	0.0001297	0.000330925	9.605169296	1.37834549	1.602196693	-0.013828278	0.006484986	0.01654625	-0.907470703	0.496337891	-0.041748047	891.5	37.69416399	-77.72584749	-137.0964218	-53
56295	0	0.384338379	0.052490234	0.065979004	0.999999046	-0.000602722	0.000103951	0.000274658	9.608459473	1.312255859	1.649475098	-0.030136111	0.005197525	0.013732911	-0.907714844	0.500732422	-0.039306641	891.5	37.51059881	-77.72479176	-136.9867904	-52
56296	0	0.383009911	0.052443504	0.066792488	0.999999046	-0.000462532	-2.48E-05	0.000239372	9.575247765	1.311087608	1.669812202	-0.023126603	-0.001239777	0.011968613	-0.907714844	0.500732422	-0.039306641	891.5	37.39915032	-77.73286171	-136.9336544	-53
56297	0	0.383728027	0.051940918	0.066467285	0.999999046	-0.000392914	-1.43E-05	7.63E-05	9.593200684	1.298522949	1.661682129	-0.019645691	-0.000715256	0.003814697	-0.905273438	0.498535156	-0.041992188	891.5	37.36059628	-77.72858709	-136.9409927	-53
56298	0	0.387277603	0.052013397	0.065275192	0.999999046	-0.000265121	-0.000154495	0.000201225	9.681940079	1.30033493	1.631879807	-0.013256073	-0.007724762	0.010061264	-0.905517578	0.498535156	-0.036376953	891.52	37.32944433	-77.74582402	-136.9508213	-52
56299	0	0.386047363	0.053588867	0.064025879	0.999999046	-6.10E-05	-0.000166893	0.000247955	9.651184082	1.33972168	1.600646973	-0.003051758	-0.00834465	0.012397766	-0.907714844	0.498535156	-0.036132813	891.58	37.30673129	-77.76747501	-136.9457627	-53
56300	0	0.384080887	0.052718163	0.065245628	0.999999046	0.000145912	-0.000143051	0.000266075	9.602022171	1.317954063	1.631140709	0.007295609	-0.007152558	0.013303757	-0.907714844	0.500732422	-0.039306641	891.5	37.29278892	-77.78819764	-136.9184695	-52
56301	0	0.384460449	0.052368164	0.065673828	0.999999046	-0.000141144	-0.000201225	0.000240326	9.61151123	1.309204102	1.641845703	-0.00705719	-0.010061264	0.012016297	-0.907714844	0.500732422	-0.039306641	891.58	37.27566386	-77.81241267	-136.9207413	-53
56302	0	0.385123253	0.053017616	0.067790985	0.999999046	-0.000347137	-0.000301361	0.000370026	9.628081322	1.325440407	1.694774628	-0.017356874	-0.015068055	0.018501283	-0.907958984	0.500732422	-0.036376953	891.56	37.21226789	-77.85462948	-136.9040841	-53
56303	0	0.385986328	0.051025391	0.06640625	0.999999046	-0.000362396	-0.000304222	0.000328064	9.649658203	1.275634766	1.66015625	-0.018119813	-0.015211106	0.016403199	-0.907958984	0.502929688	-0.036376953	891.58	37.16551801	-77.89418148	-136.9039674	-53
56304	0	0.386364937	0.051089287	0.066023827	0.999999046	-0.000378609	-0.000247955	0.00018692	9.659123421	1.27723217	1.650595665	-0.018930436	-0.012397767	0.009346009	-0.905517578	0.500732422	-0.033447266	891.56	37.15879624	-77.91881263	-136.9508075	-53
56305	0	0.386230469	0.050170898	0.064697266	0.999999046	-0.000202179	-6.39E-05	0.000324249	9.655761719	1.254272461	1.617431641	-0.010108948	-0.003194809	0.016212464	-0.907958984	0.502929688	-0.033691406	891.5	37.05409	-77.93618392	-136.8758249	-52
56306	0	0.386880875	0.049527168	0.063812256	0.999999046	3.24E-05	-9.73E-05	0.00026226	9.672021866	1.238179207	1.595306396	0.001621246	-0.004863739	0.013113022	-0.907958984	0.500732422	-0.033447266	891.5	37.01344541	-77.95242219	-136.8398286	-52
56307	0	0.386230469	0.049865723	0.065917969	0.999999046	0.000259399	-2.86E-06	0.000244141	9.655761719	1.246643066	1.647949219	0.012969971	-0.000143051	0.012207032	-0.903320313	0.502929688	-0.036865234	891.56	36.97579563	-77.95876969	-136.7721686	-52
56308	0	0.387169838	0.049650192	0.066742897	0.999999046	0.000321388	6.10E-05	0.00039959	9.679245949	1.241254807	1.668572426	0.016069413	0.003051758	0.019979478	-0.907958984	0.502929688	-0.036376953	891.52	36.85742385	-77.96992978	-136.6182133	-53
56309	0	0.385559082	0.050720215	0.067626953	0.999999046	0.000396729	-4.10E-05	0.000396729	9.638977051	1.268005371	1.690673828	0.019836427	-0.0020504	0.019836427	-0.907958984	0.502929688	-0.036376953	891.56	36.78135291	-77.99009774	-136.4995975	-52
56310	0	0.386824608	0.0505867	0.064867973	0.999999046	0.000347137	8.77E-05	0.000430107	9.670615196	1.264667511	1.621699333	0.017356873	0.004386902	0.021505357	-0.907958984	0.502929688	-0.033691406	891.42	36.64360187	-78.00069893	-136.3302626	-53
56311	0	0.387817383	0.049926758	0.067199707	0.999999046	0.000247955	3.91E-05	0.000278473	9.69543457	1.248168945	1.679992676	0.012397766	0.001955032	0.013923645	-0.905517578	0.502929688	-0.039550781	891.44	36.57534069	-78.00530079	-136.2320429	-52
56312	0	0.388511658	0.049984932	0.062931061	0.999999046	9.25E-05	0.000167847	0.000277519	9.712791443	1.249623299	1.57327652	0.004625321	0.008392334	0.013875962	-0.903320313	0.502929688	-0.036865234	891.56	36.44881464	-77.99807495	-136.0981134	-52
56313	0	0.385864258	0.049499512	0.06463623	0.999999046	0.000312805	0.000359535	0.000339508	9.646606445	1.237487793	1.615905762	0.01564026	0.017976762	0.016975404	-0.905517578	0.502929688	-0.039550781	891.52	36.25985051	-77.97733813	-135.8719839	-53
56314	0	0.384811401	0.04805851	0.066346169	0.999999046	0.000570297	0.000333786	0.000328064	9.620285034	1.201462746	1.658654213	0.028514865	0.016689302	0.0164032	-0.903320313	0.505126953	-0.036865234	891.56	36.11388582	-77.95808581	-135.6661663	-52
56315	0	0.385314941	0.047973633	0.06628418	0.999999046	0.000602722	0.000153542	0.000228882	9.632873535	1.19934082	1.657104492	0.030136111	0.007677079	0.011444093	-0.905517578	0.502929688	-0.042480469	891.56	36.07181034	-77.94879016	-135.5547635	-53
56316	0	0.386659622	0.048729897	0.066098213	0.999999046	0.000563622	0.000125885	0.000263214	9.666490555	1.218247414	1.65245533	0.028181078	0.006294251	0.013160706	-0.905761719	0.507324219	-0.039794922	891.64	36.01912664	-77.94438693	-135.4429295	-53
56317	0	0.387207031	0.047973633	0.065979004	0.999999046	0.000617981	0.000283241	0.000240326	9.680175781	1.19934082	1.649475098	0.030899051	0.014162065	0.012016297	-0.905517578	0.505126953	-0.042480469	891.58	35.93300612	-77.92389006	-135.2881213	-53
56318	0	0.385848999	0.048726082	0.068333626	0.999999046	0.000640869	0.000101089	6.48E-05	9.646224976	1.218152046	1.708340645	0.032043459	0.005054474	0.003242493	-0.903320313	0.507324219	-0.045898438	891.62	35.98270907	-77.90841484	-135.2630023	-52
56319	0	0.386169434	0.04888916	0.064880371	0.999999046	0.000232697	-3.34E-05	9.16E-05	9.65423584	1.222229004	1.622009277	0.011634827	-0.00166893	0.004577637	-0.903076172	0.507324219	-0.048583984	891.52	36.01649357	-77.90729535	-135.2644652	-52
56320	0	0.386548042	0.04811573	0.065502167	0.999999046	0.000348091	6.68E-05	7.15E-05	9.663701057	1.202893257	1.637554169	0.017404557	0.00333786	0.003576279	-0.900878906	0.504882813	-0.045654297	891.58	36.04059512	-77.89563055	-135.249554	-53
56321	0	0.386413574	0.048400879	0.066894531	0.999999046	0.00044632	0.000138283	0.000137329	9.660339355	1.210021973	1.672363281	0.02231598	0.006914139	0.006866455	-0.903076172	0.505126953	-0.045654297	891.62	36.02485376	-77.8817957	-135.184505	-53
56322	0	0.386163712	0.048477173	0.068360329	0.999999046	8.20E-05	-9.35E-05	2.67E-05	9.654092789	1.211929321	1.709008217	0.0041008	-0.004673004	0.001335144	-0.905517578	0.505126953	-0.045410156	891.5	36.08749606	-77.88193639	-135.2433898	-53
56323	0	0.385437012	0.049804688	0.068847656	0.999999046	0.00018692	-0.000189781	1.53E-05	9.635925293	1.245117188	1.721191406	0.009346008	-0.00948906	0.000762939	-0.905517578	0.505126953	-0.045410156	891.52	36.19721226	-77.89009623	-135.3377683	-53
56324	0	0.383999825	0.049757957	0.069841385	0.999999046	0.000247002	-0.000402451	-0.000133514	9.599995613	1.243948936	1.746034622	0.012350083	-0.020122529	-0.00667572	-0.905517578	0.507324219	-0.045654297	891.52	36.44500254	-77.90757641	-135.5640308	-52
56325	0	0.386535645	0.049560547	0.067626953	0.999999046	1.91E-05	-0.000418663	-0.00019455	9.663391113	1.239013672	1.690673828	0.000953674	-0.020933152	-0.009727478	-0.905517578	0.505126953	-0.048339844	891.52	36.69851304	-77.9221372	-135.8164456	-53
56326	0	0.387241364	0.050567627	0.065285683	0.999999046	-0.000265121	-0.000528336	-0.000320435	9.681034088	1.264190674	1.632142067	-0.013256074	-0.026416781	-0.01602173	-0.905517578	0.502929688	-0.042480469	891.5	37.00959643	-77.93786204	-136.17088	-52
56327	0	0.38848877	0.051635742	0.063171387	0.999999046	-0.000427246	-0.000342369	-0.000225067	9.712219238	1.290893555	1.579284668	-0.021362306	-0.017118455	-0.011253358	-0.905517578	0.505126953	-0.042480469	891.58	37.20239022	-77.94294844	-136.4202501	-52
56328	0	0.385580063	0.049007416	0.063741684	0.999999046	-8.30E-05	-0.000392914	-0.000134468	9.639501572	1.225185394	1.593542099	-0.004148483	-0.019645692	-0.006723404	-0.905517578	0.502929688	-0.039550781	891.56	37.41266404	-77.95885869	-136.6520069	-52
56329	0	0.383056641	0.050048828	0.06451416	0.999999046	0.00018692	-0.000464439	-0.000240326	9.576416016	1.251220703	1.612854004	0.009346009	-0.023221971	-0.012016297	-0.907714844	0.500732422	-0.041992188	891.64	37.72301255	-77.97366731	-136.9491991	-53
56330	0	0.384373665	0.051416397	0.064319611	0.999999046	0.000156403	-0.000488281	-0.000133514	9.609341621	1.285409927	1.607990265	0.00782013	-0.024414064	-0.006675721	-0.907958984	0.502929688	-0.042236328	891.58	37.99333191	-77.99781715	-137.2062906	-52
56331	0	0.386535645	0.050231934	0.063171387	0.999999046	0.000259399	-0.000491142	-0.000221252	9.663391113	1.25579834	1.579284668	0.012969971	-0.024557115	-0.011062623	-0.907714844	0.500732422	-0.041992188	891.56	38.31467985	-78.01581678	-137.5031271	-52
56332	0	0.38620472	0.052020073	0.059895515	0.999999046	0.000317574	-0.000904083	-0.000202179	9.655117989	1.300501823	1.497387886	0.01587868	-0.04520417	-0.010108949	-0.905273438	0.500732422	-0.042236328	891.58	38.77612035	-78.07190524	-137.9322172	-52
56333	0	0.383239746	0.052001953	0.0546875	0.999999046	0.000282288	-0.001101494	-0.000370026	9.580993652	1.300048828	1.3671875	0.014114383	-0.055074705	-0.018501286	-0.905273438	0.498535156	-0.0390625	891.52	39.37806508	-78.13287756	-138.5123179	-52
56334	0	0.389855385	0.051283836	0.055263519	0.999999046	0.000589371	-3.43E-05	-0.000264168	9.746384621	1.282095909	1.381587982	0.029468538	-0.001716614	-0.01320839	-0.91015625	0.498779297	-0.033203125	891.52	39.60489168	-78.1066453	-138.6872283	-53
56335	0	0.391174316	0.055053711	0.060791016	0.999999046	0.000267029	-1.43E-05	0.00012207	9.77935791	1.376342773	1.519775391	0.013351441	-0.000715256	0.006103516	-0.907958984	0.498779297	-0.036132813	891.52	39.62614524	-78.10680661	-138.6835046	-52
56336	0	0.388442039	0.05224514	0.062704086	0.999999046	-0.000302315	-0.000507355	0.000179291	9.711050987	1.306128502	1.567602158	-0.015115739	-0.025367738	0.008964539	-0.905761719	0.498535156	-0.033447266	891.52	39.72957154	-78.15463768	-138.8328906	-52
56337	0	0.383300781	0.051574707	0.061279297	0.999999046	0.000133514	-0.000281334	4.20E-05	9.582519531	1.289367676	1.531982422	0.00667572	-0.014066696	0.002098084	-0.910400391	0.496582031	-0.035888672	891.58	39.86226606	-78.17243917	-138.9571687	-54
56338	0	0.384010315	0.053389549	0.060437202	0.999999046	0.00037384	-0.000293732	0.000247002	9.600257874	1.334738731	1.510930061	0.018692017	-0.014686585	0.012350083	-0.907958984	0.496582031	-0.032958984	891.52	39.94139447	-78.20633475	-139.0036543	-54
56339	0	0.385681152	0.053710938	0.057861328	0.999999046	8.77E-05	-0.000620842	0.000343323	9.642028809	1.342773438	1.446533203	0.004386902	-0.031042102	0.017166139	-0.910400391	0.498779297	-0.036132813	891.46	40.06407061	-78.27609941	-139.119494	-54
56340	0	0.38816452	0.052537918	0.054256439	0.999998093	0.000179291	-0.000367165	0.000105858	9.704113007	1.313447952	1.35641098	0.008964539	-0.018358231	0.005292893	-0.908203125	0.500976563	-0.036376953	891.56	40.20953075	-78.30629049	-139.2450555	-53
56341	0	0.389953613	0.054870605	0.059204102	0.999999046	0.000366211	-0.000182152	0.000213623	9.748840332	1.371765137	1.480102539	0.018310548	-0.00910759	0.010681153	-0.907958984	0.498779297	-0.0390625	891.52	40.26574306	-78.32821473	-139.2529088	-54
56342	0	0.384687424	0.052430153	0.059512138	0.999999046	0.0001297	-0.000102997	0.000347137	9.617185593	1.310753822	1.487803459	0.006484986	-0.005149841	0.017356873	-0.908203125	0.500976563	-0.033447266	891.56	40.209965	-78.35308654	-139.1853446	-55
56343	0	0.380371094	0.05065918	0.058349609	0.999999046	0.000190735	-0.000185966	9.16E-05	9.509277344	1.266479492	1.458740234	0.009536743	-0.009298325	0.004577637	-0.908203125	0.498779297	-0.030273438	891.5	40.29935951	-78.36633075	-139.2657678	-54
56344	0	0.386078835	0.053051949	0.060198784	0.999999046	0.000554085	8.01E-05	0.000300407	9.651970863	1.326298714	1.504969597	0.027704241	0.004005432	0.015020371	-0.907958984	0.498779297	-0.036132813	891.56	40.24604203	-78.37172562	-139.147212	-54
56345	0	0.389221191	0.053222656	0.060302734	0.999999046	0.000419617	-0.00033474	0.000305176	9.730529785	1.330566406	1.507568359	0.020980836	-0.016736985	0.01525879	-0.905517578	0.498535156	-0.036376953	891.52	40.32478342	-78.41371154	-139.1778993	-54
56346	0	0.386668205	0.052060127	0.059510231	0.999999046	0.000297546	-0.000164032	0.000304222	9.666705132	1.301503181	1.487755775	0.01487732	-0.008201599	0.015211106	-0.908203125	0.500976563	-0.033447266	891.58	40.32834168	-78.4407026	-139.1524473	-54
56347	0	0.385375977	0.05267334	0.061279297	0.999999046	0.000244141	0.000164986	0.00018692	9.634399414	1.316833496	1.531982422	0.012207031	0.008249283	0.009346008	-0.905761719	0.503173828	-0.036621094	891.52	40.2564178	-78.43012612	-139.0493916	-55
56348	0	0.385313988	0.051215172	0.059000015	0.999999046	0.000300407	2.29E-05	0.000240326	9.632849693	1.280379295	1.475000381	0.015020371	0.001144409	0.012016297	-0.905761719	0.500976563	-0.030761719	891.56	40.21950584	-78.4359369	-138.9892671	-54
56349	0	0.386901855	0.05279541	0.059020996	0.999999046	0.000461578	0.000226021	0.000267029	9.672546387	1.319885254	1.475524902	0.02307892	0.011301041	0.013351441	-0.905517578	0.498535156	-0.036376953	891.52	40.11649265	-78.42590595	-138.8335578	-53
56350	0	0.387573242	0.052032471	0.059879303	0.999999046	0.000499725	0.000520706	0.00026989	9.689331055	1.300811768	1.496982574	0.02498627	0.026035311	0.013494493	-0.908203125	0.500976563	-0.033447266	891.52	39.91120545	-78.39012698	-138.5782543	-54
56351	0	0.388549805	0.052185059	0.059875488	0.999999046	0.000343323	0.000344276	0.000175476	9.713745117	1.304626465	1.496887207	0.017166138	0.017213822	0.008773804	-0.905761719	0.500732422	-0.036376953	891.58	39.79264651	-78.36279458	-138.4249033	-52
56352	0	0.387732506	0.050624847	0.05961895	0.999997139	0.00049305	0.00091362	0.000170708	9.693312645	1.265621185	1.490473747	0.024652486	0.045681008	0.008535387	-0.905761719	0.500732422	-0.036376953	891.52	39.49292635	-78.28482576	-138.0734789	-53
56353	0	0.385986328	0.052246094	0.061584473	0.999999046	0.000511169	0.00074482	0.00019455	9.649658203	1.306152344	1.539611816	0.025558475	0.037240987	0.009727479	-0.905761719	0.500732422	-0.039306641	891.56	39.24804689	-78.22314729	-137.7735204	-52
56354	0	0.387807846	0.051973343	0.060948372	0.999999046	0.000564575	0.000692368	0.000175476	9.695196152	1.299333572	1.523709297	0.028228764	0.034618382	0.008773805	-0.905761719	0.502929688	-0.042480469	891.56	39.03839427	-78.16452832	-137.4996703	-54
56355	0	0.386901855	0.051635742	0.060180664	0.999999046	0.000404358	0.001076698	0.000183105	9.672546387	1.290893555	1.504516602	0.0202179	0.053834927	0.009155276	-0.905517578	0.500732422	-0.048095703	891.58	38.67919726	-78.07195862	-137.0854412	-53
56356	0	0.386173248	0.051117897	0.063715935	0.999998093	0.000530243	0.001326561	0.000152588	9.654331207	1.277947426	1.592898369	0.026512155	0.066328072	0.007629397	-0.905517578	0.502929688	-0.051025391	891.62	38.26968966	-77.95420742	-136.604381	-54
56357	0	0.38482666	0.051025391	0.064880371	0.999999046	0.00037384	0.00093174	0.000240326	9.620666504	1.275634766	1.622009277	0.01869202	0.046586999	0.012016299	-0.905517578	0.498535156	-0.047851563	891.52	37.94281138	-77.87758635	-136.2384617	-54
56358	0	0.384914398	0.052108765	0.064886093	0.999999046	0.000246048	0.000659943	0.000258446	9.622859955	1.302719116	1.622152328	0.0123024	0.032997134	0.012922288	-0.907958984	0.502929688	-0.051025391	891.58	37.68617427	-77.82640057	-135.9551135	-54
56359	0	0.387451172	0.050964355	0.06427002	0.999999046	0.000263214	0.000760078	0.000202179	9.686279297	1.274108887	1.606750488	0.013160707	0.038003926	0.010108949	-0.905517578	0.500732422	-0.053710938	891.52	37.42519829	-77.76197575	-135.662917	-54
56360	0	0.387129784	0.050719261	0.064159393	0.999999046	8.58E-06	0.000663757	3.34E-05	9.678244591	1.267981529	1.603984833	0.000429153	0.033187869	0.00166893	-0.905517578	0.500732422	-0.053710938	891.58	37.23929712	-77.69444346	-135.4797981	-54
56361	0	0.385925293	0.051635742	0.063781738	0.999999046	-0.000102997	0.000630379	0.000144958	9.648132324	1.290893555	1.594543457	-0.005149842	0.031518938	0.007247925	-0.905273438	0.500732422	-0.056640625	891.58	37.00693006	-77.6376173	-135.2580448	-53
56362	0	0.384573936	0.05047226	0.066656113	0.999999046	-0.000118256	0.00069809	0.000117302	9.614348412	1.261806488	1.666402817	-0.005912781	0.034904483	0.005865098	-0.905517578	0.502929688	-0.053955078	891.58	36.76509189	-77.57249279	-135.0358759	-54
56363	0	0.385131836	0.05090332	0.065429688	0.999999046	-9.16E-05	0.000508308	8.01E-05	9.628295898	1.272583008	1.635742188	-0.004577637	0.025415422	0.004005432	-0.907714844	0.502929688	-0.056884766	891.56	36.60283385	-77.52216112	-134.8881548	-54
56364	0	0.384828568	0.051012039	0.065951347	0.999999046	6.68E-06	0.000452042	8.39E-05	9.620714188	1.27530098	1.648783684	0.000333786	0.022602082	0.004196167	-0.905273438	0.500732422	-0.0625	891.46	36.46881554	-77.47724894	-134.7474232	-52
56365	0	0.38470459	0.051879883	0.067810059	0.999999046	-0.000202179	0.000206947	7.25E-05	9.617614746	1.29699707	1.695251465	-0.010108948	0.010347366	0.003623962	-0.905273438	0.502929688	-0.062744141	891.46	36.391414	-77.45407558	-134.6885054	-52
56366	0	0.386027336	0.052773476	0.066159248	0.999999046	-0.000360489	9.16E-05	9.44E-05	9.650683403	1.319336891	1.653981209	-0.018024445	0.004577637	0.004720688	-0.905273438	0.500732422	-0.059570313	891.58	36.3226661	-77.44306245	-134.6640782	-54
56367	0	0.386291504	0.051391602	0.068603516	0.999999046	-0.000518799	-2.57E-05	7.25E-05	9.657287598	1.284790039	1.715087891	-0.025939943	-0.00128746	0.003623963	-0.905517578	0.502929688	-0.056884766	891.58	36.28054269	-77.44137213	-134.6893946	-54
56368	0	0.385142326	0.051937103	0.066804886	0.999999046	-0.000594139	0.00012207	-1.14E-05	9.628558159	1.298427582	1.670122147	-0.029706957	0.006103516	-0.000572205	-0.905517578	0.502929688	-0.059814453	891.5	36.21987749	-77.42036815	-134.6973979	-54
56369	0	0.383300781	0.050292969	0.067687988	0.999999046	-0.000751495	7.72E-05	1.53E-05	9.582519531	1.257324219	1.692199707	-0.037574772	0.003862381	0.00076294	-0.907714844	0.502929688	-0.059570313	891.46	36.14363187	-77.40534551	-134.7078872	-54
56370	0	0.382986069	0.050849915	0.068127632	0.999999046	-0.00053215	-0.000108719	2.96E-05	9.574651718	1.271247864	1.703190804	-0.026607515	-0.005435944	0.001478195	-0.905273438	0.500732422	-0.059570313	891.56	36.14280346	-77.40849503	-134.7681942	-54
56371	0	0.384216309	0.05065918	0.068481445	0.999999046	-0.000457764	-0.000170708	-2.29E-05	9.605407715	1.266479492	1.712036133	-0.022888185	-0.008535385	-0.001144409	-0.905517578	0.500732422	-0.053710938	891.58	36.19086371	-77.41382296	-134.8806937	-54
56372	0	0.384969711	0.052078247	0.068518639	0.999999046	-0.000460625	-0.000169754	-1.14E-05	9.624242783	1.301956177	1.712965965	-0.023031236	-0.008487702	-0.000572205	-0.905517578	0.500732422	-0.053710938	891.52	36.23370733	-77.41978171	-134.9863227	-54
56373	0	0.386413574	0.051025391	0.069702148	0.999999046	-0.000534058	-0.000155449	-1.91E-05	9.660339355	1.275634766	1.742553711	-0.026702882	-0.007772446	-0.000953674	-0.907714844	0.500732422	-0.056640625	891.58	36.26669952	-77.42384885	-135.0831154	-54
56374	0	0.38539505	0.050967216	0.067804337	0.999999046	-0.000391006	-0.000118256	-9.25E-05	9.634876251	1.274180412	1.695108414	-0.019550324	-0.005912781	-0.004625321	-0.903076172	0.500732422	-0.051025391	891.56	36.33513802	-77.41950536	-135.2083524	-52
56375	0	0.385925293	0.051269531	0.067687988	0.999999046	-0.000339508	8.49E-05	9.16E-05	9.648132324	1.281738281	1.692199707	-0.016975403	0.004243851	0.004577637	-0.905517578	0.500732422	-0.053710938	891.52	36.27153578	-77.40891986	-135.1868749	-54
56376	0	0.385617256	0.051213264	0.067420959	0.999999046	-0.00014019	0.000192642	4.58E-05	9.640431404	1.280331612	1.685523987	-0.007009506	0.009632111	0.002288818	-0.905273438	0.500732422	-0.056640625	891.52	36.21715485	-77.38531178	-135.1455301	-52
56377	0	0.385803223	0.051330566	0.068725586	0.999999046	-6.10E-05	0.000138283	0.000133514	9.645080566	1.28326416	1.718139648	-0.003051758	0.006914139	0.00667572	-0.907958984	0.500732422	-0.05078125	891.46	36.15210671	-77.37265253	-135.0978372	-53
56378	0	0.385980606	0.05201149	0.069569588	0.999999046	-3.24E-05	0.000101089	0.000110626	9.649515152	1.300287247	1.739239693	-0.001621246	0.005054474	0.005531311	-0.907714844	0.498535156	-0.056396484	891.56	36.11103159	-77.3618294	-135.0602121	-53
56379	0	0.385192871	0.052185059	0.069030762	0.999999046	9.92E-05	0.000199318	9.54E-05	9.629821777	1.304626465	1.725769043	0.004959106	0.009965897	0.004768372	-0.905273438	0.500732422	-0.059570313	891.58	36.06192652	-77.3408379	-134.9916405	-53
56380	0	0.383769989	0.05310154	0.071430206	0.999999046	-4.48E-05	0.000293732	4.10E-05	9.594249725	1.32753849	1.785755157	-0.002241135	0.014686585	0.0020504	-0.905273438	0.496337891	-0.056396484	891.52	35.99058239	-77.30725033	-134.9265354	-53
56381	0	0.385498047	0.051940918	0.069702148	0.999999046	-0.000183105	0.000290871	7.25E-05	9.637451172	1.298522949	1.742553711	-0.009155274	0.014543534	0.003623962	-0.905517578	0.500732422	-0.053710938	891.56	35.8916626	-77.2759922	-134.8545083	-52
56382	0	0.387907982	0.052409172	0.067320824	0.999999046	-0.000102997	0.000385284	1.91E-05	9.697699547	1.310229301	1.683020592	-0.005149841	0.019264222	0.000953674	-0.903076172	0.500732422	-0.051025391	891.56	35.79672654	-77.2324411	-134.7830923	-52
56383	0	0.384277344	0.054870605	0.068969727	0.999999046	-0.00018692	0.000443459	6.48E-05	9.606933594	1.371765137	1.724243164	-0.009346009	0.022172929	0.003242493	-0.905273438	0.498535156	-0.056640625	891.58	35.65761194	-77.18643185	-134.6667918	-52
56384	0	0.383117676	0.053405762	0.071716309	0.999999046	-0.000323296	4.96E-05	6.48E-05	9.577941895	1.335144043	1.792907715	-0.01616478	0.002479553	0.003242493	-0.905517578	0.500732422	-0.053710938	891.62	35.61908997	-77.17692343	-134.6747287	-51
56385	0	0.382759094	0.054314613	0.072506905	0.999998093	-0.000235558	-0.000246048	-4.77E-06	9.568977356	1.357865334	1.812672615	-0.011777878	-0.012302399	-0.000238419	-0.905273438	0.500732422	-0.059570313	891.58	35.70603393	-77.190098	-134.7867716	-51
56386	0	0.385232925	0.053936958	0.070031166	0.999999046	-0.000562668	-0.000583649	-1.24E-05	9.630823135	1.348423958	1.750779152	-0.028133395	-0.029182437	-0.000619888	-0.905273438	0.498535156	-0.053710938	891.56	35.85904072	-77.23403276	-135.0147838	-51
56387	0	0.386230469	0.052001953	0.069580078	0.999999046	-0.000362396	-0.000411034	-0.000167847	9.655761719	1.300048828	1.739501953	-0.018119813	-0.020551683	-0.008392334	-0.905517578	0.500732422	-0.053710938	891.5	36.04851122	-77.25136354	-135.2533281	-52
56388	0	0.386025429	0.053728104	0.069849968	0.999999046	-0.000697136	-0.000471115	-0.000183105	9.650635719	1.343202591	1.746249199	-0.034856801	-0.023555759	-0.009155275	-0.907714844	0.498535156	-0.053466797	891.64	36.22465838	-77.27300068	-135.5159853	-52
56389	0	0.383972168	0.053588867	0.067077637	0.999999046	-0.000507355	-0.000697136	-8.01E-05	9.599304199	1.33972168	1.676940918	-0.02536774	-0.034856801	-0.004005433	-0.907714844	0.498535156	-0.050537109	891.44	36.45004529	-77.32232001	-135.8091188	-52
56390	0	0.384973526	0.051567078	0.067385674	0.999999046	-8.39E-05	-0.00047493	9.06E-05	9.62433815	1.289176941	1.684641838	-0.004196167	-0.023746491	0.004529953	-0.907714844	0.498535156	-0.050537109	891.56	36.58821151	-77.36268476	-135.9610462	-52
56391	0	0.384399414	0.051818848	0.069763184	0.999999046	8.01E-05	-0.000395775	0.000137329	9.609985352	1.295471191	1.74407959	0.004005432	-0.019788743	0.006866455	-0.905273438	0.498535156	-0.05078125	891.48	36.70232452	-77.39884391	-136.0664179	-52
56392	0	0.385381699	0.051357269	0.067129135	0.999999046	0.000208855	-0.000535965	5.63E-05	9.634542465	1.283931732	1.678228378	0.010442734	-0.02679825	0.002813339	-0.907714844	0.498535156	-0.047607422	891.56	36.90836827	-77.44230045	-136.2568662	-52
56393	0	0.38659668	0.051879883	0.066955566	0.999999046	0.000339508	-0.000426292	0.000289917	9.664916992	1.29699707	1.67388916	0.016975404	-0.021314622	0.014495851	-0.905273438	0.496337891	-0.050537109	891.56	37.00031128	-77.4917621	-136.3079261	-53
56394	0	0.384364128	0.053166389	0.066285133	0.999999046	0.000499725	-0.000268936	0.000308037	9.609103203	1.329159737	1.657128334	0.024986269	-0.013446809	0.015401841	-0.905273438	0.496337891	-0.050537109	891.52	37.0548553	-77.52806561	-136.3021716	-52
56395	0	0.383666992	0.05267334	0.066772461	0.999999046	0.000244141	-0.000369072	0.000305176	9.591674805	1.316833496	1.669311523	0.012207032	-0.018453599	0.01525879	-0.905517578	0.498535156	-0.047851563	891.52	37.11288072	-77.5733017	-136.3344541	-52
56396	0	0.385027885	0.051066399	0.065851212	0.999999046	0.000159264	-0.000328064	0.000232697	9.625697136	1.276659966	1.646280289	0.007963181	-0.016403199	0.011634827	-0.907958984	0.498535156	-0.044921875	891.5	37.17859726	-77.60982824	-136.3908703	-52
56397	0	0.387207031	0.052062988	0.063659668	0.999999046	0.000152588	-0.000136375	0.000125885	9.680175781	1.301574707	1.591491699	0.007629395	-0.006818771	0.006294251	-0.907958984	0.498535156	-0.044921875	891.52	37.22809364	-77.62157386	-136.4311464	-52
56398	0	0.386566162	0.052534103	0.064452171	0.999999046	0.000312805	-0.000169754	0.000178337	9.664154053	1.313352585	1.611304283	0.015640259	-0.008487702	0.008916855	-0.907958984	0.498779297	-0.041992188	891.56	37.28511016	-77.64006094	-136.4664833	-52
56399	0	0.384094238	0.051940918	0.06439209	0.999999046	0.000484467	-0.000208855	0.000183105	9.602355957	1.298522949	1.609802246	0.024223329	-0.010442734	0.009155274	-0.907958984	0.498779297	-0.041992188	891.52	37.37255311	-77.66248847	-136.5128648	-52
56400	0	0.384140015	0.0517416	0.065828323	0.999999046	0.000523567	-0.00019455	0.000197411	9.603500366	1.293540001	1.645708084	0.026178362	-0.009727479	0.00987053	-0.905517578	0.500732422	-0.045166016	891.52	37.45406773	-77.68459473	-136.5405149	-52
56401	0	0.385864258	0.05456543	0.065795898	0.999999046	0.000644684	-0.000288963	0.000167847	9.646606445	1.364135742	1.644897461	0.032234195	-0.014448167	0.008392335	-0.907714844	0.498535156	-0.050537109	891.56	37.59264866	-77.71313288	-136.6024617	-52
56402	0	0.387200356	0.051527023	0.063978195	0.999999046	0.000581741	-0.000434875	0.000225067	9.680008888	1.288175583	1.59945488	0.029087069	-0.021743777	0.011253358	-0.905517578	0.498535156	-0.047851563	891.52	37.74774293	-77.75896652	-136.693511	-52
56403	0	0.385864258	0.051757813	0.062438965	0.999999046	0.000480652	-0.000239372	4.96E-05	9.646606445	1.293945313	1.560974121	0.024032594	-0.011968613	0.002479553	-0.905517578	0.498535156	-0.047851563	891.52	37.90221045	-77.77483157	-136.7958131	-52
56404	0	0.386325836	0.051167488	0.06116581	0.999999046	0.000458717	-0.000164032	0.000102043	9.658145905	1.279187202	1.529145241	0.022935868	-0.008201599	0.005102158	-0.907714844	0.498535156	-0.047607422	891.5	38.00832704	-77.78771145	-136.8527928	-53
56405	0	0.384460449	0.051757813	0.06262207	0.999999046	0.000694275	-0.000185966	0.000106812	9.61151123	1.293945313	1.565551758	0.034713748	-0.009298325	0.005340577	-0.907958984	0.500976563	-0.044921875	891.46	38.14694593	-77.80295155	-136.9212233	-52
56406	0	0.3840065	0.052313805	0.063931465	0.999999046	0.000488281	4.96E-05	0.00014782	9.600162506	1.307845116	1.598286629	0.024414064	0.002479553	0.007390976	-0.907714844	0.498535156	-0.047607422	891.46	38.16783558	-77.79984489	-136.8894063	-53
56407	0	0.385620117	0.051940918	0.06237793	0.999999046	0.000419617	0.000142097	0.00025177	9.64050293	1.298522949	1.559448242	0.020980836	0.007104874	0.012588502	-0.907958984	0.498535156	-0.044921875	891.46	38.10742573	-77.79583465	-136.789867	-52
56408	0	0.386482239	0.05112648	0.062382698	0.999999046	0.000357628	4.01E-05	0.000106812	9.662055969	1.278162003	1.559567451	0.017881394	0.002002716	0.005340576	-0.907714844	0.498535156	-0.047607422	891.48	38.13373308	-77.79087867	-136.78115	-52
56409	0	0.385864258	0.051696777	0.062988281	0.999999046	0.000362396	-0.000247002	5.72E-05	9.646606445	1.292419434	1.574707031	0.018119813	-0.012350083	0.002861023	-0.905517578	0.498535156	-0.044921875	891.44	38.27531308	-77.80832488	-136.8945504	-52
56410	0	0.385046959	0.050111771	0.063920021	0.999999046	0.000278473	-0.000343323	0.000175476	9.626173973	1.252794266	1.598000526	0.013923646	-0.017166138	0.008773804	-0.905517578	0.500732422	-0.048095703	891.44	38.38965808	-77.8428474	-136.9814921	-52
56411	0	0.387268066	0.052856445	0.061706543	0.999999046	0.000343323	-0.00026989	0.000213623	9.68170166	1.321411133	1.542663574	0.017166138	-0.013494492	0.010681153	-0.905273438	0.496337891	-0.047607422	891.58	38.47206651	-77.87353686	-137.0302217	-53
56412	0	0.386898041	0.055541039	0.062129974	0.999999046	0.000206947	3.24E-05	0.000113487	9.672451019	1.388525963	1.553249359	0.010347366	0.001621246	0.005674362	-0.907714844	0.496337891	-0.050537109	891.46	38.48126473	-77.8699165	-137.0149692	-52
56413	0	0.38482666	0.053649902	0.061523438	0.999999046	-0.000404358	-0.00032711	0.000225067	9.620666504	1.341247559	1.538085938	-0.020217897	-0.016355515	0.011253358	-0.907958984	0.500732422	-0.047851563	891.52	38.49371525	-77.90651809	-137.0771865	-53
56414	0	0.384645462	0.051840782	0.060336113	0.999999046	-0.000787735	-0.000240326	-9.54E-05	9.616136551	1.296019554	1.508402824	-0.039386754	-0.012016298	-0.004768372	-0.905517578	0.498535156	-0.044921875	891.46	38.56795415	-77.91255584	-137.2509245	-53
56415	0	0.385864258	0.051391602	0.062744141	0.999999046	-0.000671387	-6.68E-06	-0.000133514	9.646606445	1.284790039	1.568603516	-0.033569339	-0.000333786	-0.006675721	-0.905517578	0.498535156	-0.044921875	891.46	38.59332303	-77.89493391	-137.3592891	-52
56416	0	0.387254715	0.051898003	0.063234329	0.999999046	-0.000639915	-0.000230789	5.63E-05	9.681367874	1.297450066	1.580858231	-0.031995776	-0.01153946	0.002813339	-0.907958984	0.498535156	-0.044921875	891.46	38.61756288	-77.91095468	-137.4612181	-52
56417	0	0.384643555	0.051574707	0.06237793	0.999999046	-0.000843048	-0.000636101	1.14E-05	9.616088867	1.289367676	1.559448242	-0.042152413	-0.031805044	0.000572205	-0.905517578	0.498535156	-0.044921875	891.44	38.77342679	-77.9600044	-137.7163352	-53
56418	0	0.388139725	0.053111076	0.060446739	0.999999046	-0.000640869	-0.00021553	3.81E-05	9.703493118	1.327776909	1.51116848	-0.032043459	-0.010776521	0.001907349	-0.907714844	0.498535156	-0.047607422	891.46	38.80111709	-77.97338871	-137.8093369	-52
56419	0	0.385925293	0.05267334	0.063537598	0.999999046	-0.000835419	2.77E-05	1.53E-05	9.648132324	1.316833496	1.588439941	-0.04177094	0.001382828	0.00076294	-0.907958984	0.498779297	-0.041992188	891.5	38.73410683	-77.96334071	-137.838968	-52
56420	0	0.385556221	0.050602913	0.06303215	0.999999046	-0.000884056	8.01E-05	-4.96E-05	9.638905525	1.265072823	1.575803757	-0.04420281	0.004005433	-0.002479554	-0.907714844	0.496337891	-0.041748047	891.48	38.67067553	-77.94398097	-137.8775567	-52
56421	0	0.385559082	0.051635742	0.062011719	0.999999046	-0.000694275	0.000119209	-4.58E-05	9.638977051	1.290893555	1.550292969	-0.034713748	0.005960465	-0.002288819	-0.907958984	0.498779297	-0.036132813	891.52	38.61430416	-77.92143211	-137.911421	-52
56422	0	0.386576653	0.05225563	0.062113762	0.999999046	-0.000528336	2.86E-05	1.81E-05	9.664416313	1.306390762	1.552844048	-0.02641678	0.001430512	0.000905991	-0.907958984	0.498779297	-0.036132813	891.48	38.58059687	-77.91159705	-137.947719	-53
56423	0	0.386413574	0.051940918	0.061584473	0.999999046	-0.000576019	-1.81E-05	1.91E-05	9.660339355	1.298522949	1.539611816	-0.028800966	-0.000905991	0.000953674	-0.907958984	0.496582031	-0.035888672	891.52	38.5567223	-77.90607954	-137.9993988	-53
56424	0	0.386295319	0.051734924	0.059920311	0.999999046	-0.00033474	0.000265121	0.000213623	9.657382965	1.293373108	1.498007774	-0.016736985	0.013256074	0.010681153	-0.910400391	0.498779297	-0.041748047	891.38	38.38523608	-77.88916956	-137.8594101	-53
56425	0	0.386474609	0.051940918	0.062011719	0.999999046	-0.000263214	0.000332832	6.48E-05	9.661865234	1.298522949	1.550292969	-0.013160706	0.016641617	0.003242493	-0.905517578	0.496337891	-0.041992188	891.48	38.26237151	-77.85557783	-137.7603301	-52
56426	0	0.387233734	0.053933144	0.062174797	0.999999046	-0.000341415	0.000478745	0.000225067	9.680843353	1.34832859	1.554369926	-0.017070771	0.023937227	0.011253358	-0.910400391	0.498779297	-0.036132813	891.52	38.01690618	-77.82010646	-137.5597554	-52
56427	0	0.385620117	0.053344727	0.063415527	0.999999046	-0.000480652	0.000416756	0.000228882	9.64050293	1.333618164	1.585388184	-0.024032595	0.020837785	0.011444093	-0.907714844	0.496337891	-0.041748047	891.56	37.77559077	-77.79028974	-137.3680808	-52
56428	0	0.386935234	0.052435875	0.062322617	0.999999046	-0.000409126	0.000360489	0.000198364	9.673380852	1.310896873	1.558065414	-0.020456315	0.018024446	0.009918213	-0.907958984	0.496582031	-0.038818359	891.48	37.57475364	-77.76334342	-137.2164264	-52
56429	0	0.385009766	0.05255127	0.063476563	0.999999046	-0.000148773	0.000390053	0.000167847	9.625244141	1.313781738	1.586914063	-0.00743866	0.01950264	0.008392334	-0.905517578	0.496337891	-0.036132813	891.5	37.40805859	-77.73147264	-137.0754368	-53
56430	0	0.383940697	0.051976204	0.062813759	0.999999046	-0.000406265	0.000267029	0.000208855	9.598517418	1.299405098	1.570343971	-0.020313264	0.013351441	0.010442734	-0.907958984	0.500976563	-0.044921875	891.52	37.23495989	-77.71361438	-136.9381752	-53
56431	0	0.387512207	0.051818848	0.062072754	0.999999046	-3.81E-05	0.000370979	0.00012207	9.687805176	1.295471191	1.551818848	-0.001907349	0.018548966	0.006103516	-0.907958984	0.498779297	-0.041992188	891.46	37.10827693	-77.68030394	-136.8139255	-53
56432	0	0.386501312	0.053305626	0.063522339	0.999999046	-5.44E-05	0.000190735	0.000124931	9.662532806	1.332640648	1.588058472	-0.002717972	0.009536743	0.006246567	-0.907958984	0.496582031	-0.038818359	891.52	37.03654727	-77.66364128	-136.7561038	-52
56433	0	0.385070801	0.053710938	0.064147949	0.999999046	3.43E-05	0.000435829	0.000164032	9.62677002	1.342773438	1.60369873	0.001716614	0.021791459	0.008201599	-0.905517578	0.498535156	-0.041992188	891.56	36.88233052	-77.62717587	-136.596658	-53
56434	0	0.38393116	0.050842285	0.06637001	0.999999046	-5.15E-05	0.000289917	0.000170708	9.598278999	1.271057129	1.659250259	-0.002574921	0.01449585	0.008535385	-0.907958984	0.498779297	-0.041992188	891.62	36.761602	-77.60444084	-136.4833299	-53
56435	0	0.384094238	0.051818848	0.065917969	0.999999046	0.0001297	0.000164986	0.000263214	9.602355957	1.295471191	1.647949219	0.006484985	0.008249283	0.013160706	-0.907958984	0.498779297	-0.041992188	891.46	36.66222809	-77.59944091	-136.3715906	-53
56436	0	0.38574791	0.052120209	0.064565659	0.999999046	0.000105858	-5.72E-05	0.000244141	9.643697739	1.303005219	1.614141464	0.005292893	-0.002861023	0.012207031	-0.91015625	0.496582031	-0.044433594	891.48	36.63751464	-77.61357547	-136.3353307	-52
56437	0	0.385925293	0.052429199	0.064941406	0.999999046	0.000209808	-2.57E-05	0.000297546	9.648132324	1.31072998	1.623535156	0.010490418	-0.00128746	0.01487732	-0.907958984	0.496582031	-0.038818359	891.46	36.5927421	-77.62846519	-136.2782816	-53
56438	0	0.383822441	0.051434517	0.06666851	0.999999046	0.000114441	9.16E-05	0.000235558	9.595561028	1.285862923	1.666712761	0.005722046	0.004577637	0.011777878	-0.907958984	0.498779297	-0.041992188	891.46	36.52628665	-77.62825416	-136.2029848	-53
56439	0	0.383361816	0.051635742	0.068603516	0.999999046	0.000209808	-2.19E-05	0.000152588	9.58404541	1.290893555	1.715087891	0.010490418	-0.001096725	0.007629395	-0.905517578	0.500732422	-0.048095703	891.48	36.54050536	-77.63268268	-136.1845961	-53
56440	0	0.38350296	0.052401543	0.068990707	0.999999046	0.000224113	-0.000328064	0.000183105	9.587574005	1.310038567	1.724767685	0.011205674	-0.016403199	0.009155274	-0.905517578	0.500732422	-0.048095703	891.46	36.63878448	-77.6671844	-136.2500288	-53
56441	0	0.388427734	0.052001953	0.064575195	0.999999046	-3.05E-05	-0.000403404	0.000175476	9.710693359	1.300048828	1.614379883	-0.001525879	-0.020170212	0.008773804	-0.907958984	0.500976563	-0.044921875	891.52	36.73550382	-77.70811026	-136.3499283	-52
56442	0	0.387583733	0.051983833	0.066095352	0.999999046	0.000370026	-0.000127792	0.000166893	9.689593315	1.299595833	1.652383804	0.018501282	-0.006389618	0.008344651	-0.905517578	0.498535156	-0.047851563	891.58	36.79541278	-77.723087	-136.3592659	-52
56443	0	0.386169434	0.050170898	0.067443848	0.999999046	0.000259399	-0.000151634	9.92E-05	9.65423584	1.254272461	1.686096191	0.012969971	-0.007581711	0.004959107	-0.907958984	0.500976563	-0.044921875	891.5	36.87828174	-77.7355414	-136.4115338	-53
56444	0	0.384368896	0.050924301	0.06998539	0.999999046	0.000460625	-0.000326157	-3.81E-06	9.609222412	1.273107529	1.749634743	0.023031236	-0.016307832	-0.000190735	-0.907958984	0.500976563	-0.042236328	891.4	37.08243663	-77.75664516	-136.5698263	-53
56445	0	0.384338379	0.051330566	0.068908691	0.999999046	0.000644684	-0.000372887	0.000144958	9.608459473	1.28326416	1.722717285	0.032234195	-0.018644335	0.007247926	-0.905517578	0.498535156	-0.044921875	891.52	37.25997416	-77.792042	-136.6734259	-53
56446	0	0.385502815	0.052099228	0.067820549	0.999999046	0.000713348	-0.000219345	0.000113487	9.637570381	1.302480698	1.695513725	0.035667423	-0.010967256	0.005674363	-0.905517578	0.500732422	-0.042236328	891.48	37.4096341	-77.81105481	-136.7462654	-52
56447	0	0.385437012	0.051635742	0.067932129	0.999999046	0.000518799	-0.000216484	0.000141144	9.635925293	1.290893555	1.698303223	0.025939943	-0.010824204	0.00705719	-0.907958984	0.498535156	-0.044921875	891.58	37.52421623	-77.83156763	-136.8020163	-52
56448	0	0.384929657	0.05092144	0.064048767	0.999999046	0.000395775	-0.000326157	-1.91E-05	9.623241425	1.273036003	1.601219177	0.019788743	-0.016307832	-0.000953674	-0.905517578	0.500732422	-0.042236328	891.56	37.72805934	-77.85081993	-136.9672562	-52
56449	0	0.385375977	0.051269531	0.064208984	0.999999046	0.000431061	-0.000380516	5.72E-05	9.634399414	1.281738281	1.605224609	0.021553041	-0.019025804	0.002861023	-0.905517578	0.500732422	-0.042236328	891.46	37.92210132	-77.88024426	-137.1176633	-53
56450	0	0.385430336	0.051768303	0.064052582	0.999999046	0.000247955	-0.000312805	6.10E-05	9.6357584	1.294207573	1.601314545	0.012397766	-0.015640259	0.003051758	-0.907958984	0.498779297	-0.0390625	891.44	38.0719615	-77.90371699	-137.2519284	-54
56451	0	0.385742188	0.052368164	0.063598633	0.999999046	5.34E-05	-0.000342369	4.96E-05	9.643554688	1.309204102	1.58996582	0.002670288	-0.017118454	0.002479553	-0.907958984	0.500976563	-0.042236328	891.48	38.21469758	-77.92896312	-137.3925507	-54
56452	0	0.38597393	0.052274704	0.063816071	0.999999046	2.19E-05	-0.000341415	4.58E-05	9.649348259	1.306867599	1.595401764	0.001096725	-0.017070771	0.002288818	-0.905517578	0.498535156	-0.041992188	891.44	38.35565566	-77.95375182	-137.5342801	-54
56453	0	0.385009766	0.052246094	0.06451416	0.999999046	-1.53E-05	-0.000426292	0.000110626	9.625244141	1.306152344	1.612854004	-0.000762939	-0.021314622	0.005531311	-0.905761719	0.500732422	-0.039306641	891.46	38.49385183	-77.99063151	-137.6810071	-53
56454	0	0.38501358	0.052402496	0.062843323	0.999999046	-0.000146866	-0.00056839	7.63E-05	9.625339508	1.310062408	1.571083069	-0.007343293	-0.028419496	0.003814697	-0.907958984	0.498779297	-0.0390625	891.48	38.68032622	-78.03767606	-137.8917475	-54
56455	0	0.38659668	0.052978516	0.062194824	0.999999046	-0.000221252	-0.000441551	-4.96E-05	9.664916992	1.324462891	1.554870605	-0.011062623	-0.022077561	-0.002479553	-0.907958984	0.498779297	-0.041992188	891.58	38.86995036	-78.06419809	-138.1056199	-54
56456	0	0.388353348	0.053539276	0.060470581	0.999999046	-0.000359535	-0.000246048	-4.58E-05	9.708833694	1.338481903	1.511764526	-0.017976761	-0.012302399	-0.002288818	-0.905517578	0.498535156	-0.041992188	891.52	38.97664274	-78.07348923	-138.2484905	-54
56457	0	0.387695313	0.052856445	0.059448242	0.999999046	-0.000190735	0.000229836	-0.00025177	9.692382813	1.321411133	1.486206055	-0.009536743	0.011491776	-0.012588501	-0.905517578	0.498535156	-0.036376953	891.48	39.0274875	-78.02558967	-138.3270755	-54
56458	0	0.385686874	0.052232742	0.061841011	0.999999046	-0.00044632	0.000112534	-0.000248909	9.64217186	1.305818558	1.546025276	-0.02231598	0.005626679	-0.01244545	-0.907958984	0.496582031	-0.035888672	891.52	39.08717014	-77.98832987	-138.4462545	-54
56459	0	0.383972168	0.05480957	0.062194824	0.999999046	-0.000530243	0.000157356	-0.00025177	9.599304199	1.370239258	1.554870605	-0.026512148	0.007867814	-0.012588502	-0.907958984	0.498779297	-0.033203125	891.48	39.1230696	-77.94676564	-138.5550457	-54
56460	0	0.385940552	0.05182457	0.062187195	0.999999046	-0.000512123	0.000226974	-0.0001297	9.648513794	1.295614243	1.554679871	-0.025606157	0.011348725	-0.006484986	-0.91015625	0.496582031	-0.038818359	891.48	39.086186	-77.9078793	-138.5759932	-52
56461	0	0.385803223	0.051513672	0.062072754	0.999999046	-0.000339508	0.000115395	-0.000175476	9.645080566	1.287841797	1.551818848	-0.016975403	0.00576973	-0.008773804	-0.907958984	0.496582031	-0.032958984	891.52	39.1253431	-77.87566951	-138.6660327	-53
56462	0	0.385648727	0.052157402	0.060120583	0.999999046	-0.000253677	0.000104904	0.000110626	9.641218185	1.303935051	1.503014565	-0.012683869	0.005245209	0.005531311	-0.910400391	0.498779297	-0.036132813	891.46	39.05950994	-77.86520324	-138.6314001	-54
56463	0	0.384460449	0.051086426	0.057922363	0.999999046	-1.53E-05	6.20E-05	9.92E-05	9.61151123	1.277160645	1.448059082	-0.000762939	0.003099442	0.004959106	-0.91015625	0.496582031	-0.041748047	891.48	39.04049092	-77.85796708	-138.6054188	-54
56464	0	0.385073662	0.052044868	0.059373856	0.999999046	2.19E-05	8.58E-05	0.000167847	9.626841545	1.301121712	1.48434639	0.001096725	0.004291534	0.008392334	-0.91015625	0.494384766	-0.038574219	891.48	38.98963632	-77.85371355	-138.5508084	-54
56465	0	0.385986328	0.053894043	0.061584473	0.999999046	-9.54E-05	-6.68E-06	0.00018692	9.649658203	1.347351074	1.539611816	-0.004768372	-0.000333786	0.009346008	-0.907958984	0.496582031	-0.035888672	891.46	38.948734	-77.85908573	-138.5243084	-54
56466	0	0.386860847	0.053371429	0.060733795	0.999999046	-0.000331879	3.43E-05	8.01E-05	9.671521187	1.334285736	1.518344879	-0.016593933	0.001716614	0.004005432	-0.907714844	0.494140625	-0.041503906	891.48	38.91154709	-77.85318643	-138.5172962	-52
56467	0	0.38494873	0.053222656	0.060180664	0.999999046	-0.000297546	-2.86E-06	9.16E-05	9.623718262	1.330566406	1.504516602	-0.01487732	-0.000143051	0.004577637	-0.91015625	0.494384766	-0.038574219	891.52	38.88640151	-77.85150547	-138.5251045	-52
56468	0	0.385324478	0.052627563	0.059597969	0.999999046	-0.000288963	1.34E-05	0.000144958	9.633111954	1.315689087	1.489949226	-0.014448166	0.000667572	0.007247925	-0.91015625	0.494384766	-0.035644531	891.46	38.83506599	-77.85234058	-138.510962	-53
56469	0	0.384521484	0.052307129	0.060058594	0.999999046	-0.00018692	-1.81E-05	0.000164032	9.613037109	1.307678223	1.501464844	-0.009346008	-0.000905991	0.008201599	-0.907714844	0.496337891	-0.041748047	891.58	38.79822585	-77.85746205	-138.4844427	-52
56470	0	0.387042999	0.053133011	0.060673714	0.999999046	-0.000244141	9.54E-05	0.000160217	9.676074982	1.328325272	1.516842842	-0.012207031	0.004768372	0.008010864	-0.907714844	0.494384766	-0.035888672	891.48	38.71888826	-77.85223883	-138.4347172	-53
56471	0	0.386047363	0.053527832	0.060058594	0.999999046	-0.000289917	0.000218391	0.000164032	9.651184082	1.338195801	1.501464844	-0.01449585	0.010919571	0.008201599	-0.907714844	0.494140625	-0.038574219	891.46	38.59241478	-77.83634013	-138.3366204	-52
56472	0	0.385426521	0.053059578	0.062210083	0.999999046	-0.00017643	0.000177383	0.000263214	9.635663033	1.326489449	1.555252075	-0.008821488	0.008869171	0.013160706	-0.907958984	0.496582031	-0.038818359	891.46	38.45164461	-77.83115676	-138.2097462	-53
56473	0	0.384399414	0.052429199	0.063232422	0.999999046	-0.000102997	0.0001688	9.54E-05	9.609985352	1.31072998	1.580810547	-0.005149841	0.008440018	0.004768372	-0.907958984	0.496582031	-0.035888672	891.48	38.39200216	-77.81472114	-138.1641173	-54
56474	0	0.385059357	0.052647591	0.062944412	0.999999046	-0.000204086	2.48E-05	0.000266075	9.626483917	1.316189766	1.573610306	-0.010204315	0.001239777	0.013303757	-0.907958984	0.498779297	-0.036132813	891.56	38.29724003	-77.82334524	-138.0927898	-53
56475	0	0.387023926	0.051208496	0.063354492	0.999999046	-0.000110626	-5.25E-05	0.000175476	9.675598145	1.280212402	1.583862305	-0.005531311	-0.002622604	0.008773804	-0.91015625	0.496582031	-0.041748047	891.48	38.27597851	-77.83251508	-138.0746476	-53
56476	0	0.386254311	0.051791191	0.062347412	0.999999046	-0.000113487	5.34E-05	0.000118256	9.656357765	1.294779778	1.558685303	-0.005674362	0.002670288	0.005912781	-0.907958984	0.496582031	-0.035888672	891.48	38.24340085	-77.8281453	-138.0574423	-52
56477	0	0.386535645	0.051391602	0.061584473	0.999999046	-8.01E-05	5.05E-05	0.000198364	9.663391113	1.284790039	1.539611816	-0.004005432	0.002527237	0.009918213	-0.907958984	0.496582031	-0.032958984	891.48	38.18219638	-77.82980171	-138.0134337	-54
56478	0	0.385817528	0.05189991	0.061325073	0.999999046	0.000225067	0.000204086	0.000236511	9.645438194	1.297497749	1.533126831	0.011253357	0.010204315	0.011825562	-0.907958984	0.496582031	-0.032958984	891.44	38.08984667	-77.82038424	-137.9029827	-54
56479	0	0.387145996	0.051818848	0.062683105	0.999999046	0.000152588	0.000294685	0.000244141	9.678649902	1.295471191	1.567077637	0.007629395	0.014734269	0.012207032	-0.907958984	0.498779297	-0.0390625	891.52	37.95657106	-77.80332828	-137.7464868	-54
56480	0	0.386097908	0.052685738	0.061672211	0.999999046	1.62E-05	0.000385284	9.44E-05	9.652447701	1.31714344	1.541805267	0.000810623	0.019264222	0.004720688	-0.907958984	0.496582031	-0.038818359	891.48	37.84159862	-77.76752304	-137.6276146	-54
56481	0	0.386291504	0.051208496	0.061523438	0.999999046	3.81E-06	0.000340462	0.000183105	9.657287598	1.280212402	1.538085938	0.000190735	0.017023087	0.009155274	-0.907958984	0.498779297	-0.0390625	891.46	37.70346331	-77.74206419	-137.4865076	-54
56482	0	0.385290146	0.052410126	0.06367588	0.999999046	6.10E-05	0.000440598	0.000148773	9.632253647	1.310253143	1.591897011	0.003051758	0.022029878	0.00743866	-0.907958984	0.498779297	-0.0390625	891.44	37.55473449	-77.70503123	-137.3297051	-53
56483	0	0.38470459	0.052185059	0.06439209	0.999999046	5.72E-05	0.000409126	0.000183105	9.617614746	1.304626465	1.609802246	0.002861023	0.020456315	0.009155274	-0.907958984	0.498779297	-0.0390625	891.48	37.4021849	-77.6731417	-137.1711558	-53
56484	0	0.386318207	0.051257133	0.06311512	0.999998093	-0.000123978	0.000346184	0.000109673	9.65795517	1.281428337	1.577877998	-0.006198883	0.017309189	0.005483627	-0.907958984	0.498779297	-0.0390625	891.44	37.28024556	-77.64188287	-137.0661617	-54
56485	0	0.386779785	0.053100586	0.0625	0.999999046	3.43E-05	0.000515938	6.10E-05	9.669494629	1.327514648	1.5625	0.001716614	0.025796891	0.003051758	-0.905517578	0.496337891	-0.041992188	891.44	37.14427023	-77.59177681	-136.9239008	-53
56486	0	0.386597633	0.052081108	0.063809395	0.999999046	-0.000169754	0.000461578	0.000128746	9.664940834	1.302027702	1.595234871	-0.008487702	0.023078919	0.006437302	-0.905517578	0.498535156	-0.041992188	891.56	36.97514277	-77.55129499	-136.7722025	-52
56487	0	0.384643555	0.051879883	0.064147949	0.999999046	-7.63E-05	0.000481606	7.63E-05	9.616088867	1.29699707	1.60369873	-0.003814697	0.024080277	0.003814697	-0.907958984	0.498779297	-0.0390625	891.48	36.83340346	-77.50531919	-136.646229	-53
56488	0	0.385503769	0.051138878	0.065685272	0.999999046	-3.34E-05	0.000484467	-3.05E-05	9.637594223	1.278471947	1.642131805	-0.00166893	0.024223329	-0.001525879	-0.907714844	0.498535156	-0.047607422	891.48	36.74059882	-77.45172529	-136.5483506	-52
56489	0	0.38659668	0.05279541	0.06427002	0.999999046	-0.000118256	0.000397682	7.63E-06	9.664916992	1.319885254	1.606750488	-0.005912781	0.01988411	0.00038147	-0.907714844	0.496337891	-0.044677734	891.46	36.650114	-77.40874884	-136.471259	-52
56490	0	0.386119843	0.051431656	0.062878609	0.999999046	-0.000329971	0.000482559	7.15E-05	9.652996063	1.285791397	1.571965218	-0.016498567	0.024127962	0.003576279	-0.907714844	0.498535156	-0.050537109	891.62	36.48421818	-77.36245701	-136.3293458	-52
56491	0	0.386352539	0.052246094	0.06427002	0.999999046	-0.00030899	0.000462532	-0.000137329	9.658813477	1.306152344	1.606750488	-0.015449525	0.023126603	-0.006866455	-0.907714844	0.498535156	-0.050537109	891.52	36.4137587	-77.30383589	-136.28385	-52
56492	0	0.385484695	0.051701546	0.064718246	0.999999046	-0.000432014	0.000677109	-6.10E-05	9.637117386	1.292538643	1.617956161	-0.021600726	0.033855442	-0.003051758	-0.907714844	0.496337891	-0.047607422	891.44	36.23452124	-77.23067171	-136.1501644	-52
56493	0	0.38470459	0.051452637	0.064575195	0.999999046	-0.000240326	0.000756264	-4.20E-05	9.617614746	1.286315918	1.614379883	-0.012016298	0.037813191	-0.002098084	-0.91015625	0.496582031	-0.047363281	891.48	36.04799936	-77.15151343	-135.9899794	-52
56494	0	0.386553764	0.052368164	0.065977097	0.999999046	-0.000488281	0.00097084	-8.49E-05	9.663844109	1.309204102	1.649427414	-0.024414067	0.048542032	-0.004243852	-0.91015625	0.496337891	-0.050292969	891.46	35.79020624	-77.04951749	-135.7820368	-52
56495	0	0.386474609	0.05267334	0.065063477	0.999999046	-0.000522614	0.000958443	3.05E-05	9.661865234	1.316833496	1.626586914	-0.026130681	0.047922144	0.001525879	-0.907470703	0.496337891	-0.056152344	891.46	35.48971763	-76.95631974	-135.5232311	-51
56496	0	0.384400368	0.05166626	0.065181732	0.999998093	-0.000534058	0.001278877	-9.92E-05	9.610009193	1.291656494	1.629543304	-0.026702889	0.063943883	-0.004959108	-0.91015625	0.496337891	-0.050292969	891.52	35.15360569	-76.82444446	-135.2464867	-52
56497	0	0.385742188	0.053405762	0.067199707	0.999998093	-0.000594139	0.001342773	-9.92E-05	9.643554688	1.335144043	1.679992676	-0.029706966	0.067138696	-0.004959108	-0.907714844	0.498535156	-0.053466797	891.46	34.79959412	-76.68630189	-134.9532996	-51
56498	0	0.385250092	0.052976608	0.06597805	0.999999046	-0.000827789	0.001096725	-0.000107765	9.631252289	1.324415207	1.649451256	-0.041389478	0.054836291	-0.005388262	-0.909912109	0.494140625	-0.052978516	891.48	34.49652914	-76.57062474	-134.7456821	-51
56499	0	0.385498047	0.052307129	0.063415527	0.999998093	-0.000899315	0.001213074	-0.00025177	9.637451172	1.307678223	1.585388184	-0.044965762	0.06065371	-0.012588506	-0.907470703	0.494140625	-0.061767578	891.68	34.21612165	-76.43475799	-134.5521655	-51
56500	0	0.384702682	0.052749634	0.065664291	0.999998093	-0.000867844	0.001460075	-0.000183105	9.617567062	1.318740845	1.641607285	-0.043392203	0.073003804	-0.009155278	-0.907470703	0.496337891	-0.059082031	891.44	33.8531652	-76.27989892	-134.2784269	-51
56501	0	0.384094238	0.05267334	0.06842041	0.999998093	-0.0010252	0.001300812	-0.00018692	9.602355957	1.316833496	1.710510254	-0.051260018	0.065040618	-0.009346013	-0.909912109	0.494140625	-0.058837891	891.46	33.52227197	-76.13982493	-134.0610268	-51
56502	0	0.386341095	0.053046227	0.067398071	0.999998093	-0.00121212	0.001318932	-0.000199318	9.658527374	1.326155663	1.684951782	-0.060606036	0.065946615	-0.009965902	-0.909912109	0.494140625	-0.058837891	891.48	33.17662566	-75.99725628	-133.8524668	-51
56503	0	0.387573242	0.053527832	0.06451416	0.999997139	-0.001232147	0.00167942	-0.000263214	9.689331055	1.338195801	1.612854004	-0.061607406	0.083971085	-0.013160715	-0.912109375	0.494140625	-0.064453125	891.58	32.77117058	-75.81620822	-133.576628	-51
56504	0	0.383915901	0.05284214	0.063491821	0.999997139	-0.001187325	0.001859665	-9.16E-05	9.59789753	1.321053505	1.587295532	-0.059366274	0.092983321	-0.00457764	-0.907226563	0.491699219	-0.067382813	891.46	32.2726612	-75.62836371	-133.1965458	-51
56505	0	0.383117676	0.051269531	0.065368652	0.999997139	-0.001369476	0.001946449	-8.39E-05	9.577941895	1.281738281	1.634216309	-0.068473881	0.097322556	-0.004196171	-0.909667969	0.491943359	-0.064453125	891.48	31.74263699	-75.43229123	-132.8168377	-51
56506	0	0.3845644	0.05170536	0.065786362	0.999996185	-0.001448631	0.002232552	-0.000263214	9.614109993	1.29263401	1.644659042	-0.072431651	0.111627712	-0.013160721	-0.909667969	0.494140625	-0.0703125	891.44	31.2189083	-75.19726506	-132.444063	-51
56507	0	0.384887695	0.051635742	0.066162109	0.999996185	-0.001269341	0.002361298	-0.000301361	9.622192383	1.290893555	1.654052734	-0.063467103	0.118065024	-0.015068072	-0.911621094	0.489746094	-0.075683594	891.44	30.71657936	-74.94717909	-132.0690535	-52
56508	0	0.384613991	0.050848961	0.065299988	0.999995232	-0.000887871	0.00270462	-0.00039959	9.61534977	1.271224022	1.632499695	-0.044393601	0.135231204	-0.019979504	-0.911621094	0.491943359	-0.078857422	891.48	30.236089	-74.65746694	-131.6711228	-52
56509	0	0.382751465	0.051635742	0.065124512	0.999994278	-0.000678062	0.003143311	-0.00030899	9.568786621	1.290893555	1.628112793	-0.033903181	0.157165801	-0.015449551	-0.911621094	0.489746094	-0.078613281	891.44	29.67570378	-74.32930262	-131.1766765	-52
56510	0	0.383424759	0.050322533	0.06388092	0.999992371	-0.000695229	0.003712654	-0.000293732	9.585618973	1.258063316	1.59702301	-0.034761512	0.18563315	-0.01468662	-0.911376953	0.487304688	-0.084228516	891.52	29.02063144	-73.94475995	-130.5862819	-52
56511	0	0.382324219	0.051879883	0.065490723	0.999992371	-0.000414848	0.003787994	-0.000213623	9.558105469	1.29699707	1.637268066	-0.020742467	0.189400179	-0.010681178	-0.913574219	0.489501953	-0.095947266	891.54	28.38681096	-73.55627425	-129.9713191	-52
56512	0	0.380411148	0.050889969	0.065731049	0.999990463	-0.000247955	0.00433445	-0.000263214	9.510278702	1.272249222	1.643276215	-0.012397805	0.216723172	-0.013160747	-0.911376953	0.489501953	-0.095947266	891.48	27.72237423	-73.10906682	-129.3182405	-52
56513	0	0.381835938	0.051940918	0.06652832	0.999987602	-0.000358582	0.004784584	-0.000282288	9.545898438	1.298522949	1.663208008	-0.017929146	0.239230123	-0.014114434	-0.910888672	0.484863281	-0.107177734	891.48	27.01238603	-72.61401982	-128.6240428	-52
56514	0	0.379284859	0.051558495	0.067632675	0.999986649	-0.000145912	0.005158424	-0.000193596	9.482121468	1.288962364	1.690816879	-0.007295641	0.257922365	-0.009679837	-0.910888672	0.487060547	-0.115966797	891.46	26.2798369	-72.08397669	-127.8780278	-54
56515	0	0.375976563	0.051086426	0.067504883	0.999983788	-0.000244141	0.005646706	-0.000148773	9.399414063	1.277160645	1.68762207	-0.012207096	0.282336786	-0.007438699	-0.910644531	0.487060547	-0.124755859	891.46	25.49413705	-71.50427647	-127.0878734	-52
56516	0	0.374724388	0.052569389	0.068347931	0.999979973	-0.000134468	0.00629425	-3.43E-05	9.368109703	1.314234734	1.708698273	-0.006723448	0.314714603	-0.001716625	-0.910400391	0.487060547	-0.133544922	891.54	24.64657291	-70.86091475	-126.2217419	-54
56517	0	0.374206543	0.051391602	0.071777344	0.999979973	-0.000160217	0.006276131	-0.000118256	9.355163574	1.284790039	1.794433594	-0.008010917	0.313808596	-0.00591282	-0.907714844	0.484619141	-0.145019531	891.48	23.88041649	-70.2131176	-125.4404577	-55
56518	0	0.372544289	0.050175667	0.07055378	0.999977112	-1.43E-05	0.006619453	-0.000372887	9.313607216	1.25439167	1.76384449	-0.000715261	0.330975096	-0.018644469	-0.907714844	0.484375	-0.156494141	891.64	23.21197921	-69.51612328	-124.7430104	-55
56519	0	0.372192383	0.050109863	0.070251465	0.99997139	0.000218391	0.007446289	-0.000644684	9.30480957	1.252746582	1.756286621	0.010919673	0.372317923	-0.032234492	-0.907226563	0.484375	-0.173828125	891.52	22.59693931	-68.71902723	-124.0611669	-55
56520	0	0.359752655	0.050296783	0.06717205	0.999973297	0.000272751	0.007203102	-0.000587463	8.993816376	1.257419586	1.679301262	0.013637662	0.360158245	-0.029373425	-0.90234375	0.481933594	-0.182617188	891.54	22.04726472	-67.94987226	-123.4471224	-55
56521	0	0.353088379	0.048278809	0.060974121	0.99997139	0.000317574	0.007465363	-0.000759125	8.827209473	1.206970215	1.524353027	0.015878827	0.373271637	-0.037956595	-0.902099609	0.481689453	-0.197021484	891.46	21.56123265	-67.14594915	-122.890674	-54
56522	0	0.353637695	0.047546387	0.059509277	0.999966621	0.000492096	0.008033752	-0.000743866	8.840942383	1.188659668	1.487731934	0.024605065	0.401691996	-0.037193703	-0.901611328	0.479492188	-0.211425781	891.54	21.07502154	-66.28295378	-122.3108156	-57
56523	0	0.353603363	0.048772812	0.052846909	0.999959946	0.000292778	0.008686066	-0.000936508	8.840084076	1.219320297	1.321172714	0.014639087	0.434308815	-0.046826005	-0.898925781	0.477050781	-0.228759766	891.48	20.59396783	-65.34355521	-121.7526033	-55
56524	0	0.341383934	0.052846909	0.049354553	0.999945641	0.000422478	0.010288239	-0.000963211	8.534598351	1.321172714	1.233863831	0.021124263	0.514421096	-0.048161412	-0.896240234	0.476806641	-0.240478516	891.48	20.04313406	-64.23213428	-121.1135641	-57
56525	0	0.322021484	0.045043945	0.059509277	0.999933243	0.000878334	0.011371613	-0.001331329	8.050537109	1.126098633	1.487731934	0.043917667	0.568593123	-0.06656793	-0.895751953	0.474365234	-0.266357422	891.54	19.59141549	-62.99000734	-120.5098356	-57
56526	0	0.302474022	0.039585114	0.050524712	0.999908447	0.000189781	0.013268471	-0.002394676	7.561850548	0.989627838	1.26311779	0.009489347	0.663443644	-0.119737439	-0.890380859	0.471679688	-0.286621094	891.54	19.1925321	-61.50346743	-120.054132	-58
56527	0	0.2734375	0.043518066	0.038513184	0.999867439	0.000148773	0.015694618	-0.004123688	6.8359375	1.08795166	0.96282959	0.007438986	0.784765358	-0.206193438	-0.887451172	0.467041016	-0.309570313	891.48	19.00360606	-59.69136053	-119.8519503	-57
56528	0	0.257764816	0.030644417	0.038620949	0.999802589	0.001542091	0.018949509	-0.005760193	6.444120407	0.76611042	0.96552372	0.077109641	0.947537763	-0.28802859	-0.881591797	0.455566406	-0.340820313	891.54	19.08524281	-57.46857318	-119.7865499	-57
56529	0	0.24798584	0.021606445	0.040588379	0.999713898	0.005925179	0.0222435	-0.006496429	6.199645996	0.540161133	1.014709473	0.296287181	1.112281058	-0.324852451	-0.875976563	0.446289063	-0.377929688	891.46	19.59298425	-54.86540104	-119.6523486	-61
56530	0	0.243140221	0.037244797	0.032408714	0.999669075	0.007955551	0.023738861	-0.005800247	6.078505516	0.931119919	0.810217857	0.397821357	1.187073749	-0.290044293	-0.864990234	0.432128906	-0.423583984	891.54	20.13814707	-52.13330997	-119.2808935	-72
56531	0	0.175415039	0.046630859	0.029785156	0.999693871	0.005306244	0.02380085	-0.004070282	4.385375977	1.165771484	0.744628906	0.265339229	1.190163756	-0.203534836	-0.856201172	0.416015625	-0.474853516	891.46	20.16714087	-49.46655564	-118.6232636	-69
56532	0	0.026554108	0.017179489	0.02834034	0.999644279	7.92E-05	0.026374817	-0.003734589	0.663852692	0.429487228	0.708508492	0.003958217	1.318896854	-0.186751522	-0.838378906	0.408203125	-0.518554688	891.48	19.51632748	-46.53076983	-117.8467958	-70
56533	0	-0.024963379	0.003417969	0.027282715	0.999231339	-0.007807732	0.037948608	-0.005867004	-0.624084473	0.085449219	0.682067871	-0.390486556	1.897916333	-0.293425344	-0.816162109	0.405029297	-0.565917969	891.54	17.90694823	-42.24461125	-117.0291068	-64
56534	0	0.008820534	0.034556389	0.039059639	0.998252869	-0.015116692	0.056523323	-0.008136749	0.220513344	0.863909721	0.976490974	-0.756274865	2.827812441	-0.407074453	-0.777099609	0.407470703	-0.629150391	891.48	15.4164581	-35.81506517	-116.1921855	-63
56535	0	0.145507813	-0.055175781	0.171813965	0.997207642	-0.013403893	0.072975159	-0.008419037	3.637695313	-1.379394531	4.295349121	-0.670819019	3.652157334	-0.421344027	-0.714355469	0.424804688	-0.717773438	891.48	13.19474253	-27.51260144	-115.4192099	-68
56536	0	0.384207726	0.194795609	0.871225357	0.995509148	0.00118351	0.093988419	-0.011212349	9.605193138	4.869890213	21.78063393	0.059264228	4.706467921	-0.561458118	-0.610107422	0.427001953	-0.833740234	891.6	12.86505442	-16.75514721	-114.8190815	-67
56537	0	0.005615234	0.183959961	1.939697266	0.997956276	0.00069809	0.061299324	-0.018005371	0.140380859	4.598999023	48.49243164	0.034928272	3.067055388	-0.900882209	-0.467285156	0.416748047	-0.953613281	891.74	13.04137078	-9.455738543	-115.4390823	-68
56538	0	-0.032852173	0.489648819	1.398551941	0.998402596	0.000331879	0.047679901	-0.03028965	-0.821304321	12.24122047	34.96379852	0.016602771	2.385264747	-1.515289096	-0.405761719	0.387695313	-1.006835938	891.58	13.32060668	-3.340062939	-117.693503	-79
56539	0	0.093444824	0.181518555	0.538452148	0.99934864	-0.014518738	0.032940865	0.002388	2.336120605	4.537963867	13.46130371	-0.726094461	1.647400735	0.119425941	-0.333007813	0.369384766	-1.041015625	891.64	11.62971726	0.284426615	-116.669232	-79
56540	0	0.095900536	0.136388779	0.331305504	0.999403	-0.021064758	0.027367592	0.000700951	2.39751339	3.409719467	8.282637596	-1.053447482	1.368651864	0.035054505	-0.275390625	0.409667969	-1.038818359	891.54	9.240057633	3.346382952	-116.0446654	-70
56541	0	-0.002685547	0.037231445	0.204406738	0.999659538	-0.018627167	0.018223763	-0.000370026	-0.067138672	0.930786133	5.110168457	-0.931463802	0.911291306	-0.018503377	-0.229492188	0.445800781	-1.035644531	891.6	7.12865953	5.41079757	-115.7991411	-70
56542	0	-0.158947945	0.003013611	0.195027351	0.999827385	-0.015691757	0.009840012	0.000873566	-3.973698616	0.075340271	4.875683784	-0.784632827	0.492028777	0.043680787	-0.212402344	0.483154297	-1.016601563	891.68	5.35612406	6.519180098	-115.5867643	-69
56543	0	-0.235900879	0.076721191	0.237609863	0.999915123	-0.008289337	0.009507179	0.002983093	-5.897521973	1.918029785	5.940246582	-0.414478464	0.475372274	0.14915884	-0.19921875	0.507080078	-1.0078125	891.54	4.46500685	7.5840648	-115.1611535	-74
56544	0	-0.234397888	0.069792747	0.304520607	0.999940872	-0.010332108	0.00106144	0.003175735	-5.859947205	1.744818687	7.613015175	-0.516615535	0.053073019	0.158789896	-0.186035156	0.526855469	-0.998535156	891.52	3.338202268	7.698655857	-114.7967179	-70
56545	0	-0.20489502	0.019104004	0.32434082	0.999931335	-0.011565208	-0.001819611	-0.000270844	-5.122375488	0.477600098	8.108520508	-0.57827364	-0.090982609	-0.013542485	-0.191894531	0.547119141	-0.991210938	891.54	2.014698828	7.51730592	-114.8489219	-68
56546	0	-0.219199181	-0.033555984	0.442831993	0.999990463	-0.003380775	-0.000498772	-0.002506256	-5.479979515	-0.838899612	11.07079983	-0.169039279	-0.024938658	-0.12531318	-0.197753906	0.567382813	-0.980957031	891.54	1.593682305	7.502157548	-115.1511737	-68
56547	0	-0.22454834	-0.051147461	0.519897461	0.999974251	-0.002193451	-0.006300926	-0.002502441	-5.613708496	-1.278686523	12.99743652	-0.109673475	-0.315048977	-0.125123129	-0.202636719	0.57421875	-0.981445313	891.68	1.304867247	6.827672549	-115.4686892	-68
56548	0	-0.089165688	-0.092748642	0.390708923	0.999902725	-0.009622574	-0.010008812	-0.001171112	-2.229142189	-2.318716049	9.767723083	-0.481144262	-0.500456792	-0.058557498	-0.224121094	0.574951172	-0.974365234	891.6	0.181348492	5.723796502	-115.6315489	-69
56549	0	-0.027954102	-0.070617676	0.361877441	0.99998951	-0.003669739	-0.000964165	0.002418518	-0.698852539	-1.765441895	9.046936035	-0.183487558	-0.048208399	0.120926311	-0.237548828	0.59765625	-0.952392578	891.6	-0.219471091	5.653147929	-115.3666896	-70
56550	0	-0.050833702	-0.023637772	0.376948357	0.999992371	0.002192497	0.000288963	0.003164291	-1.270842552	-0.59094429	9.423708916	0.109625135	0.014448202	0.158214962	-0.23046875	0.599853516	-0.953125	891.54	0.059131424	5.726273136	-115.0148425	-72
56551	0	-0.051818848	-0.014770508	0.366027832	0.999988556	-0.001261711	-0.004177094	0.001834869	-1.295471191	-0.369262695	9.150695801	-0.063085792	-0.208855455	0.091743812	-0.223144531	0.599365234	-0.959228516	891.54	-0.074394173	5.287010485	-114.8146705	-72
56552	0	-0.012827873	-0.020848274	0.373114586	0.999958038	0.000457764	-0.00911808	0.000490189	-0.320696831	-0.521206856	9.327864647	0.022888502	-0.455910359	0.024509771	-0.233154297	0.604248047	-0.950439453	891.58	-0.027084399	4.279540566	-114.7678176	-69
56553	0	0.029418945	-0.01171875	0.412536621	0.999962807	0.005329132	-0.006716728	0.000640869	0.735473633	-0.29296875	10.31341553	0.266459887	-0.335840548	0.032043852	-0.249511719	0.602539063	-0.955078125	891.6	0.578200773	3.543003087	-114.7093427	-69
56554	0	0.049866676	0.022072792	0.438428879	0.999970436	0.006475449	-0.004039764	0.000870705	1.246666908	0.551819801	10.96072197	0.323775615	-0.201990207	0.043535661	-0.256103516	0.587402344	-0.953369141	891.58	1.316598189	3.10743057	-114.6289192	-68
56555	0	0.032958984	0.038330078	0.432495117	0.99998951	0.002861023	-0.003024101	0.001720428	0.823974609	0.958251953	10.81237793	0.143051631	-0.151205574	0.086021714	-0.260253906	0.576171875	-0.9609375	891.6	1.646810547	2.781426925	-114.4528299	-68
56556	0	0.004875183	0.036773682	0.402178764	0.999999046	-0.000689507	-0.000501633	0.000842094	0.121879578	0.919342041	10.05446911	-0.034475335	-0.025081641	0.042104731	-0.264892578	0.576416016	-0.957763672	891.6	1.566513224	2.744989746	-114.3705558	-68
56557	0	-0.017089844	0.040039063	0.383850098	0.999998093	-0.000113487	0.001739502	-0.000782013	-0.427246094	1.000976563	9.596252441	-0.005674366	0.086975151	-0.039100671	-0.264892578	0.576416016	-0.963623047	891.68	1.544983076	2.969797047	-114.4674281	-69
56558	0	-0.037791252	0.043310165	0.386782646	0.999996185	0.000653267	0.002148628	-0.001368523	-0.944781303	1.082754135	9.669566154	0.032663383	0.107431536	-0.068426211	-0.260253906	0.576171875	-0.9609375	891.54	1.608979436	3.243729182	-114.6295963	-69
56559	0	-0.039550781	0.035583496	0.403015137	0.999998093	5.44E-05	0.001308441	-0.000640869	-0.988769531	0.889587402	10.07537842	0.002717973	0.065422081	-0.032043468	-0.260009766	0.573974609	-0.9609375	891.6	1.609596155	3.419494346	-114.7111334	-69
56560	0	-0.042768478	0.020191193	0.40326786	0.999999046	-0.000544548	0.000276566	-0.000416756	-1.06921196	0.504779816	10.08169651	-0.027227404	0.013828279	-0.020837786	-0.260009766	0.573974609	-0.9609375	891.68	1.543147016	3.476732863	-114.7702628	-69
56561	0	-0.035400391	0.003662109	0.397888184	0.999998093	-0.001498222	-0.000514984	-0.000747681	-0.885009766	0.091552734	9.94720459	-0.074911156	-0.02574922	-0.037384052	-0.260253906	0.576171875	-0.9609375	891.54	1.364519633	3.44418083	-114.8695129	-69
56562	0	-0.021180153	-0.008869171	0.402523994	0.999995232	-0.002651215	-0.000524521	-0.000606537	-0.529503822	-0.221729279	10.06309986	-0.132560899	-0.026226077	-0.030326882	-0.260253906	0.578369141	-0.964111328	891.54	1.053784646	3.409104199	-114.9523601	-69
56563	0	-0.010681152	-0.014709473	0.405883789	0.999994278	-0.003115654	-0.000202179	-0.000152588	-0.267028809	-0.367736816	10.14709473	-0.155782953	-0.010108964	-0.007629407	-0.260498047	0.585205078	-0.958740234	891.54	0.691826877	3.4085043	-114.9821112	-69
56564	0	-0.008911133	-0.021728516	0.402954102	0.999997139	-0.001955986	-0.000167847	-1.14E-05	-0.22277832	-0.543212891	10.07385254	-0.097799364	-0.008392339	-0.000572205	-0.263183594	0.58984375	-0.956054688	891.54	0.462372795	3.4102941	-114.9957953	-69
56565	0	-0.015563965	-0.019226074	0.397216797	0.999999046	0.00062561	-1.81E-05	8.77E-05	-0.389099121	-0.480651855	9.930419922	0.03128052	-0.000905991	0.004386902	-0.263427734	0.594238281	-0.950683594	891.6	0.528328582	3.428275962	-114.9975042	-69
56566	0	-0.017015457	-0.007437706	0.395334244	0.999995232	0.002780914	-1.91E-06	0.000277519	-0.425386429	-0.18594265	9.883356094	0.139045896	-9.54E-05	0.013875979	-0.260986328	0.591796875	-0.953613281	891.6	0.84207857	3.447102211	-114.9770632	-69
56567	0	-0.020019531	0.00213623	0.401794434	0.999992371	0.003693581	0.000183105	0.000461578	-0.500488281	0.053405762	10.04486084	0.184679459	0.009155295	0.023078972	-0.262939453	0.585205078	-0.958740234	891.64	1.26163173	3.485996032	-114.935652	-69
56568	0	-0.022842407	0.013747215	0.404075623	0.999993324	0.003310204	0.000141144	0.000686646	-0.571060181	0.343680382	10.10189056	0.165510493	0.007057203	0.034332341	-0.262695313	0.578613281	-0.963867188	891.58	1.639209477	3.518660002	-114.8684922	-69
56569	0	-0.026489258	0.023071289	0.402954102	0.999997139	0.002048492	0.000164986	0.000671387	-0.662231445	0.576782227	10.07385254	0.102424701	0.008249289	0.033569362	-0.260009766	0.571777344	-0.966552734	891.58	1.872831127	3.553453558	-114.8028269	-69
56570	0	-0.027504921	0.02592659	0.405038834	0.999999046	0.000974655	-0.000144958	0.000335693	-0.687623024	0.648164749	10.12597084	0.048732766	-0.007247926	0.016784671	-0.260009766	0.569580078	-0.960449219	891.6	1.981680511	3.553590635	-114.7767747	-69
56571	0	-0.024291992	0.025268555	0.40045166	0.999999046	0.00056839	-0.000468254	-0.000167847	-0.607299805	0.631713867	10.0112915	0.028419497	-0.023412707	-0.008392335	-0.259765625	0.567382813	-0.966064453	891.58	2.040943724	3.518291341	-114.8097096	-69
56572	0	-0.021607399	0.024737358	0.398612976	0.999999046	-2.00E-05	-0.000616074	-0.000389099	-0.540184975	0.618433952	9.965324402	-0.001001358	-0.030803683	-0.019454958	-0.261962891	0.567382813	-0.96875	891.54	2.031771042	3.46647359	-114.8687421	-69
56573	0	-0.017333984	0.020141602	0.399169922	0.999999046	-0.000495911	-0.000422478	-0.000598907	-0.433349609	0.503540039	9.979248047	-0.024795535	-0.021123889	-0.029945377	-0.261962891	0.567382813	-0.96875	891.58	1.967005093	3.436938101	-114.9508271	-69
56574	0	-0.0200634	0.013371468	0.400909424	0.999999046	-0.000677109	-0.000146866	-0.000354767	-0.501585007	0.33428669	10.0227356	-0.033855442	-0.007343293	-0.017738344	-0.264404297	0.567382813	-0.965820313	891.54	1.883214564	3.437398643	-115.0041415	-69
56575	0	-0.020019531	0.009460449	0.399475098	0.999999046	-0.000923157	-4.10E-05	-0.000164032	-0.500488281	0.23651123	9.986877441	-0.046157844	-0.0020504	-0.0082016	-0.264404297	0.569580078	-0.968994141	891.6	1.772371258	3.448690451	-115.0350213	-69
56576	0	-0.019256592	0.006581306	0.398879051	0.999998093	-0.001506805	-0.0001688	-0.000130653	-0.481414795	0.164532661	9.97197628	-0.0753403	-0.008440021	-0.006532672	-0.262451172	0.571777344	-0.963378906	891.54	1.59455841	3.444622433	-115.0621173	-69
56577	0	-0.020263672	0.002746582	0.401550293	0.999999046	-0.001224518	-0.00045681	-4.96E-05	-0.506591797	0.068664551	10.03875732	-0.061225909	-0.022840506	-0.002479554	-0.264892578	0.57421875	-0.960693359	891.52	1.449196703	3.406767227	-115.0810473	-69
56578	0	-0.019592285	0.001275063	0.400351524	0.999999046	-0.000144958	-0.000749588	0.000117302	-0.489807129	0.031876564	10.00878811	-0.007247926	-0.037479404	0.005865098	-0.267333984	0.576416016	-0.963623047	891.6	1.428219797	3.334388508	-115.0816391	-69
56579	0	-0.018920898	0.002380371	0.399414063	0.999999046	0.000591278	-0.000601768	0.000209808	-0.473022461	0.059509277	9.985351563	0.029563908	-0.030088428	0.010490419	-0.267333984	0.576416016	-0.963623047	891.48	1.491900103	3.278202361	-115.0709546	-69
56580	0	-0.01837635	0.005484581	0.399612427	0.999999046	0.000908852	-0.000463486	0.000216484	-0.45940876	0.137114525	9.990310669	0.045442589	-0.02317429	0.010824205	-0.269775391	0.576660156	-0.963378906	891.58	1.591827285	3.237353647	-115.0593461	-69
56581	0	-0.01776123	0.010314941	0.401306152	0.999999046	0.000770569	-0.000445366	0.000297546	-0.444030762	0.257873535	10.03265381	0.038528448	-0.022268299	0.014877322	-0.26953125	0.574462891	-0.963134766	891.6	1.676435315	3.197818258	-115.038386	-69
56582	0	-0.017883301	0.016068459	0.400015831	0.999999046	0.000394821	-0.000360489	0.000118256	-0.44708252	0.401711464	10.00039577	0.019741059	-0.018024445	0.005912781	-0.26953125	0.572021484	-0.960205078	891.52	1.717121908	3.168146087	-115.0377907	-69
56583	0	-0.017883301	0.019165039	0.399902344	0.999999046	0.000144958	-0.000403404	6.10E-05	-0.44708252	0.479125977	9.997558594	0.007247925	-0.020170212	0.003051758	-0.26953125	0.572021484	-0.963134766	891.48	1.729216936	3.133331975	-115.0437962	-69
56584	0	-0.018107414	0.018427849	0.400216103	0.999999046	-0.000109673	-0.000469208	7.63E-05	-0.452685356	0.46069622	10.00540257	-0.005483628	-0.023460389	0.003814697	-0.271972656	0.572265625	-0.962890625	891.7	1.712579761	3.090539952	-115.0485717	-69
56585	0	-0.018981934	0.015625	0.399963379	0.999999046	-0.00038147	-0.000330925	5.72E-05	-0.47454834	0.390625	9.999084473	-0.019073487	-0.01654625	0.002861023	-0.271972656	0.574462891	-0.960205078	891.66	1.664920874	3.063331867	-115.054739	-69
56586	0	-0.016944885	0.012635231	0.401021957	0.999999046	-0.000490189	-0.000305176	-6.10E-05	-0.423622131	0.315880775	10.02554893	-0.024509431	-0.01525879	-0.003051758	-0.271972656	0.574462891	-0.963134766	891.58	1.604160805	3.03905027	-115.074364	-69
56587	0	-0.016479492	0.00970459	0.401306152	0.999999046	-0.000598907	-0.00026989	-1.14E-05	-0.411987305	0.242614746	10.03265381	-0.029945376	-0.013494493	-0.000572205	-0.274414063	0.574462891	-0.962890625	891.54	1.531200527	3.018225213	-115.0886159	-69
56588	0	-0.015930176	0.005737305	0.401672363	0.999999046	-0.000304222	-0.000236511	-0.000133514	-0.398254395	0.143432617	10.04180908	-0.015211106	-0.011825562	-0.00667572	-0.274414063	0.574462891	-0.962890625	891.6	1.491049957	3.001161563	-115.1165631	-69
56589	0	-0.014099121	0.006652832	0.398803711	0.999999046	-0.000110626	8.58E-06	-0.000144958	-0.352478027	0.166320801	9.970092773	-0.005531311	0.000429153	-0.007247925	-0.274414063	0.574462891	-0.959960938	891.64	1.47289083	3.011707901	-115.1449781	-68
56590	0	-0.015267372	0.008390427	0.40075779	0.999999046	-0.000326157	0.000143051	0.000209808	-0.381684303	0.209760666	10.01894474	-0.016307831	0.007152558	0.010490418	-0.271972656	0.574462891	-0.963134766	891.58	1.432126049	3.036189673	-115.1320082	-69
56591	0	-0.01751709	0.0078125	0.398742676	0.999999046	-0.000156403	0.000210762	4.96E-05	-0.437927246	0.1953125	9.968566895	-0.007820129	0.010538101	0.002479553	-0.274414063	0.574462891	-0.957275391	891.6	1.409778086	3.06859043	-115.1378076	-69
56592	0	-0.020490646	0.008728027	0.395989418	0.999999046	-0.000189781	0.000331879	1.14E-05	-0.512266159	0.218200684	9.899735451	-0.00948906	0.016593934	0.000572205	-0.269775391	0.576660156	-0.957519531	891.6	1.383365703	3.114822324	-115.146614	-69
56593	0	-0.018188477	0.009399414	0.395446777	0.999999046	-3.05E-05	0.000134468	8.39E-05	-0.454711914	0.234985352	9.886169434	-0.001525879	0.006723404	0.004196167	-0.271972656	0.574462891	-0.960205078	891.66	1.375652516	3.137963033	-115.1485693	-69
56594	0	-0.015486717	0.010598183	0.399471283	0.999999046	-8.96E-05	-5.15E-05	0.000224113	-0.387167931	0.264954567	9.986782074	-0.004482269	-0.002574921	0.011205673	-0.269775391	0.576660156	-0.957519531	891.52	1.362101514	3.138990978	-115.1342564	-69
56595	0	-0.01574707	0.010437012	0.401062012	0.999999046	-0.000205994	-0.000144005	0.000259399	-0.393676758	0.260925293	10.02655029	-0.010299683	-0.007200241	0.012969971	-0.272216797	0.576660156	-0.954589844	891.64	1.335506148	3.128928089	-115.1167764	-69
56596	0	-0.016785622	0.009608269	0.402474403	0.999999046	-0.000170708	0.00012207	7.25E-05	-0.419640541	0.240206718	10.06186008	-0.008535385	0.006103516	0.003623962	-0.272216797	0.578857422	-0.957763672	891.7	1.311863677	3.149508738	-115.1198758	-69
56597	0	-0.018737793	0.009277344	0.40234375	0.999999046	-8.01E-05	0.000161171	0.000141144	-0.468444824	0.231933594	10.05859375	-0.004005432	0.008058548	0.00705719	-0.272216797	0.578857422	-0.954833984	891.64	1.299076329	3.174148979	-115.1150835	-69
56598	0	-0.02093792	0.012269974	0.399775505	1	3.72E-05	2.96E-05	4.58E-05	-0.52344799	0.306749344	9.994387627	0.001859665	0.001478195	0.002288818	-0.269775391	0.576660156	-0.957519531	891.52	1.299299266	3.183835683	-115.1212802	-69
56599	0	-0.019104004	0.009033203	0.399047852	0.999999046	-7.63E-05	-0.000174522	0.0001297	-0.477600098	0.225830078	9.976196289	-0.003814697	-0.00872612	0.006484985	-0.269775391	0.578857422	-0.957763672	891.64	1.287046007	3.169709327	-115.118123	-69
56600	0	-0.016032219	0.009220123	0.399786949	0.999999046	-0.000193596	-1.91E-05	0.000110626	-0.400805473	0.230503082	9.994673729	-0.009679794	-0.000953674	0.005531311	-0.269775391	0.576660156	-0.957519531	891.68	1.261288705	3.173080049	-115.117168	-69
56601	0	-0.017089844	0.009216309	0.400939941	0.999999046	-5.34E-05	1.24E-05	9.16E-05	-0.427246094	0.230407715	10.02349854	-0.002670288	0.000619888	0.004577637	-0.270019531	0.578857422	-0.954833984	891.58	1.251522061	3.179801358	-115.118113	-69
56602	0	-0.015999794	0.008199692	0.399902344	0.999999046	4.96E-05	9.73E-05	3.81E-06	-0.39999485	0.204992294	9.997558594	0.002479553	0.004863739	0.000190735	-0.272216797	0.578857422	-0.957763672	891.6	1.253005156	3.196117295	-115.1295664	-69
56603	0	-0.017700195	0.008361816	0.399963379	0.999999046	0.000137329	0.000248909	0.000118256	-0.442504883	0.20904541	9.999084473	0.006866455	0.01244545	0.005912781	-0.269775391	0.576660156	-0.960449219	891.6	1.265297662	3.229257907	-115.1272156	-69
56604	0	-0.019972801	0.007499695	0.399950981	0.999999046	0.000216484	4.20E-05	0.000228882	-0.49932003	0.187492371	9.998774529	0.010824204	0.002098084	0.011444092	-0.269775391	0.578857422	-0.960693359	891.54	1.287303399	3.238257408	-115.1124016	-69
56605	0	-0.020324707	0.008666992	0.399841309	0.999999046	6.87E-05	-7.15E-05	8.77E-05	-0.508117676	0.216674805	9.996032715	0.003433228	-0.003576279	0.004386902	-0.269775391	0.576660156	-0.960449219	891.64	1.291448452	3.234485768	-115.114352	-69
56606	0	-0.019105911	0.008419991	0.399781227	0.999999046	6.10E-05	0.000160217	0.000239372	-0.477647781	0.210499763	9.994530678	0.003051758	0.008010864	0.011968613	-0.269775391	0.578857422	-0.960693359	891.58	1.295731619	3.256683547	-115.0981142	-69
56607	0	-0.018310547	0.009460449	0.400268555	0.999999046	3.43E-05	3.15E-05	0.000118256	-0.457763672	0.23651123	10.00671387	0.001716614	0.001573563	0.005912781	-0.269775391	0.578857422	-0.963623047	891.52	1.296194245	3.264212965	-115.0961783	-69
56608	0	-0.016990662	0.009490967	0.400266647	0.999999046	0.000100136	0.000139236	0.000128746	-0.424766541	0.23727417	10.00666618	0.00500679	0.006961823	0.006437302	-0.267333984	0.578613281	-0.960693359	891.52	1.304327117	3.283764569	-115.0921702	-69
56609	0	-0.018249512	0.010681152	0.399230957	0.999999046	0.000175476	0.000161171	4.20E-05	-0.456237793	0.267028809	9.980773926	0.008773804	0.008058548	0.002098084	-0.267333984	0.576416016	-0.960693359	891.64	1.320628332	3.305828034	-115.0984927	-69
56610	0	-0.020330429	0.009846687	0.40056324	0.999999046	0.000265121	0.00012207	0.000152588	-0.508260727	0.246167183	10.014081	0.013256073	0.006103516	0.007629395	-0.267333984	0.576416016	-0.960693359	891.54	1.347978593	3.322991089	-115.0922606	-69
56611	0	-0.020874023	0.008789063	0.400146484	0.999999046	0.000114441	-2.86E-06	0.000106812	-0.521850586	0.219726563	10.00366211	0.005722046	-0.000143051	0.005340576	-0.264892578	0.578613281	-0.963867188	891.54	1.35772542	3.325861415	-115.0907015	-69
56612	0	-0.020991325	0.009983063	0.400265694	0.999999046	-3.15E-05	-0.000152588	0.000102997	-0.524783134	0.249576569	10.00664234	-0.001573563	-0.007629395	0.005149841	-0.264892578	0.57421875	-0.957763672	891.54	1.350746511	3.311495	-115.0906553	-69
56613	0	-0.018981934	0.009887695	0.401367188	0.999999046	6.87E-05	5.05E-05	0.000160217	-0.47454834	0.247192383	10.03417969	0.003433228	0.002527237	0.008010864	-0.267333984	0.576416016	-0.957763672	891.64	1.355692157	3.320052511	-115.0839611	-69
56614	0	-0.017981529	0.008482933	0.400814056	0.999999046	0.000152588	0.000192642	4.86E-05	-0.449538231	0.212073326	10.02035141	0.007629395	0.009632111	0.00243187	-0.264892578	0.576416016	-0.957763672	891.48	1.369500188	3.344952023	-115.0890125	-69
56615	0	-0.018676758	0.009033203	0.40045166	0.999999046	0.000339508	0.000344276	0	-0.466918945	0.225830078	10.0112915	0.016975403	0.017213822	0	-0.264892578	0.57421875	-0.963378906	891.58	1.404411544	3.387154476	-115.0997666	-69
56616	0	-0.01864624	0.011195183	0.398721695	0.999999046	0.000285149	0.00044632	0.000163078	-0.466156006	0.27987957	9.968042374	0.014257432	0.02231598	0.008153916	-0.262451172	0.576416016	-0.9609375	891.58	1.43430773	3.440377418	-115.0905865	-69
56617	0	-0.021179199	0.009765625	0.401611328	0.999999046	0.000289917	0.000226021	0.000217438	-0.52947998	0.244140625	10.0402832	0.01449585	0.011301041	0.010871888	-0.262451172	0.57421875	-0.960693359	891.54	1.465094979	3.468097378	-115.0763658	-69
56618	0	-0.02239418	0.009946823	0.401778221	0.999999046	0.000200272	4.77E-05	0.000114441	-0.559854507	0.248670578	10.04445553	0.01001358	0.002384186	0.005722046	-0.262451172	0.576416016	-0.9609375	891.54	1.484865369	3.475634626	-115.0741609	-69
56619	0	-0.02142334	0.010864258	0.400390625	0.999999046	0.0001297	7.34E-05	5.34E-05	-0.535583496	0.271606445	10.00976563	0.006484985	0.003671646	0.002670288	-0.262451172	0.57421875	-0.960693359	891.58	1.496168079	3.486205637	-115.0793284	-69
56620	0	-0.019832611	0.010725975	0.401421547	0.999999046	0.000153542	0.000226974	2.96E-05	-0.495815277	0.268149376	10.03553867	0.007677078	0.011348725	0.001478195	-0.262451172	0.57421875	-0.960693359	891.52	1.510088678	3.514255454	-115.0868654	-69
56621	0	-0.019348145	0.011901855	0.400878906	0.999999046	0.000118256	-1.05E-05	8.39E-05	-0.483703613	0.297546387	10.02197266	0.005912781	-0.000524521	0.004196167	-0.262451172	0.573974609	-0.963623047	891.58	1.520383519	3.514729332	-115.0889361	-69
56622	0	-0.019398689	0.010961533	0.400326729	0.999999046	0.000144958	0.000173569	2.96E-05	-0.484967232	0.274038315	10.00816822	0.007247925	0.008678436	0.001478195	-0.262451172	0.576416016	-0.963867188	891.58	1.533417555	3.536252661	-115.0962947	-69
56623	0	-0.021484375	0.011413574	0.400024414	0.999999046	0.00019455	0.000149727	5.34E-05	-0.537109375	0.285339355	10.00061035	0.009727478	0.007486343	0.002670288	-0.260009766	0.573974609	-0.963623047	891.64	1.552343695	3.554876688	-115.1006223	-69
56624	0	-0.021969795	0.010656357	0.401477814	0.999999046	0.000185966	-2.10E-05	4.20E-05	-0.549244881	0.26640892	10.03694534	0.009298325	-0.001049042	0.002098084	-0.264892578	0.57421875	-0.963378906	891.6	1.57016757	3.55390369	-115.1085456	-69
56625	0	-0.022827148	0.010986328	0.401550293	0.999999046	0.000144958	-6.01E-05	-8.01E-05	-0.570678711	0.274658203	10.03875732	0.007247925	-0.003004074	-0.004005432	-0.260009766	0.571777344	-0.963623047	891.54	1.582428195	3.548802909	-115.1289215	-69
56626	0	-0.021071434	0.010915756	0.400084496	0.999999046	-0.000118256	-0.000169754	-3.43E-05	-0.526785851	0.272893906	10.00211239	-0.005912781	-0.008487701	-0.001716614	-0.262451172	0.573974609	-0.966552734	891.6	1.564836206	3.530877884	-115.1449142	-69
56627	0	-0.020141602	0.010986328	0.402954102	0.999999046	-7.63E-05	-7.15E-05	5.72E-05	-0.503540039	0.274658203	10.07385254	-0.003814697	-0.003576279	0.002861023	-0.262451172	0.573974609	-0.963623047	891.54	1.55273011	3.52375212	-115.1500278	-69
56628	0	-0.02038765	0.010866165	0.400028229	0.999999046	-1.24E-05	-5.53E-05	-4.77E-06	-0.509691238	0.271654129	10.00070572	-0.000619888	-0.002765656	-0.000238419	-0.262451172	0.571777344	-0.963378906	891.58	1.547522542	3.518540256	-115.1625913	-69
56629	0	-0.020202637	0.010375977	0.40020752	0.999999046	9.54E-05	2.77E-05	5.72E-05	-0.505065918	0.259399414	10.00518799	0.004768372	0.001382828	0.002861023	-0.262451172	0.571777344	-0.960449219	891.58	1.555103658	3.522501308	-115.1676798	-69
56630	0	-0.020100594	0.011980057	0.399471283	0.999999046	0.000183105	0.000349045	2.86E-06	-0.502514839	0.299501419	9.986782074	0.009155274	0.01745224	0.000143051	-0.262451172	0.571777344	-0.963378906	891.58	1.572480257	3.563308095	-115.178202	-69
56631	0	-0.022460938	0.011352539	0.402404785	0.999999046	0.000202179	0.000229836	0.000179291	-0.561523438	0.283813477	10.06011963	0.010108948	0.011491776	0.008964539	-0.260009766	0.573974609	-0.966552734	891.6	1.593301711	3.5898641	-115.1675437	-69
56632	0	-0.022152901	0.010972977	0.401473999	0.999999046	0.000102043	7.82E-05	9.54E-05	-0.553822517	0.274324417	10.03684998	0.005102158	0.003910065	0.004768372	-0.260009766	0.571777344	-0.963623047	891.58	1.602013184	3.599255364	-115.1675726	-69
56633	0	-0.022766113	0.01171875	0.400268555	0.999999046	-5.34E-05	7.34E-05	4.96E-05	-0.569152832	0.29296875	10.00671387	-0.002670288	0.003671646	0.002479553	-0.260009766	0.571777344	-0.966552734	891.52	1.592613433	3.608218488	-115.1730613	-69
56634	0	-0.02148056	0.011738777	0.400876045	1	-9.54E-07	-5.05E-05	6.68E-06	-0.537014008	0.293469429	10.02190113	-4.77E-05	-0.002527237	0.000333786	-0.260009766	0.571777344	-0.963623047	891.58	1.588925892	3.603018387	-115.1837589	-69
56635	0	-0.021484375	0.01171875	0.400085449	0.999999046	-8.39E-05	0.000134468	0.000152588	-0.537109375	0.29296875	10.00213623	-0.004196167	0.006723404	0.007629395	-0.262451172	0.573974609	-0.966552734	891.58	1.576856275	3.618457255	-115.1780352	-69
56636	0	-0.020611763	0.011657715	0.399410248	0.999999046	-1.81E-05	0.000169754	9.92E-05	-0.515294075	0.291442871	9.985256195	-0.000905991	0.008487701	0.004959106	-0.260009766	0.573974609	-0.966552734	891.64	1.571986981	3.637971306	-115.177327	-69
56637	0	-0.022033691	0.01171875	0.399108887	0.999999046	0.000148773	0.000218391	0	-0.550842285	0.29296875	9.977722168	0.00743866	0.010919571	0	-0.257568359	0.571777344	-0.969482422	891.6	1.585570284	3.663303715	-115.1874324	-69
56638	0	-0.023184776	0.01177597	0.400071144	0.999999046	8.20E-05	0.000160217	9.44E-05	-0.579619408	0.294399261	10.0017786	0.0041008	0.008010864	0.004720688	-0.257568359	0.573974609	-0.963867188	891.7	1.592220802	3.681656264	-115.1864575	-69
56639	0	-0.0234375	0.011413574	0.40057373	0.999999046	8.77E-05	3.91E-05	7.63E-05	-0.5859375	0.285339355	10.01434326	0.004386902	0.001955032	0.003814697	-0.259765625	0.569580078	-0.963378906	891.64	1.59937973	3.686180349	-115.1901779	-69
56640	0	-0.024199486	0.011792183	0.398737907	0.999999046	6.77E-05	-1.53E-05	0.000171661	-0.604987144	0.294804573	9.968447685	0.003385544	-0.000762939	0.008583069	-0.257568359	0.571777344	-0.966552734	891.58	1.604972699	3.68420281	-115.1815242	-69
56641	0	-0.021850586	0.011535645	0.400024414	0.999999046	2.29E-05	0.000126839	4.20E-05	-0.546264648	0.288391113	10.00061035	0.001144409	0.006341934	0.002098084	-0.257324219	0.571533203	-0.972412109	891.64	1.60451668	3.698825028	-115.1875507	-69
56642	0	-0.022439957	0.011311531	0.401665688	0.999999046	8.20E-05	0.000127792	0.000102997	-0.560998917	0.282788277	10.04164219	0.0041008	0.006389618	0.005149841	-0.257568359	0.573974609	-0.969726563	891.52	1.611290729	3.713289471	-115.1861672	-69
56643	0	-0.023132324	0.011108398	0.399230957	0.999999046	-4.20E-05	9.54E-07	3.81E-06	-0.578308105	0.277709961	9.980773926	-0.002098083	4.77E-05	0.000190735	-0.255126953	0.571533203	-0.966796875	891.64	1.603088523	3.713512527	-115.1959887	-69
56644	0	-0.022705078	0.01119709	0.399475098	0.999997139	6.96E-05	4.77E-05	7.63E-05	-0.567626953	0.279927254	9.986877441	0.003480911	0.002384186	0.003814697	-0.257568359	0.571777344	-0.969482422	891.6	1.608218771	3.718802318	-115.1987406	-69
56645	0	-0.023193359	0.01171875	0.399108887	0.999999046	9.54E-05	0.000164986	5.34E-05	-0.579833984	0.29296875	9.977722168	0.004768372	0.008249283	0.002670288	-0.257568359	0.571777344	-0.966552734	891.64	1.616178479	3.737575077	-115.2037574	-69
56646	0	-0.023690224	0.012530327	0.402028084	0.999999046	0.000112534	5.72E-05	0.000232697	-0.592255592	0.313258171	10.0507021	0.005626679	0.002861023	0.011634827	-0.257324219	0.569580078	-0.966308594	891.54	1.627481712	3.743404938	-115.1890749	-69
56647	0	-0.02520752	0.012207031	0.401245117	0.999999046	9.54E-05	-0.000308037	0.00019455	-0.630187988	0.305175781	10.03112793	0.004768372	-0.015401841	0.009727478	-0.257568359	0.571777344	-0.969482422	891.58	1.636490227	3.707577924	-115.179276	-69
56648	0	-0.025076866	0.012475967	0.40119648	0.999999046	8.68E-05	-0.000204086	8.30E-05	-0.626921654	0.311899185	10.02991199	0.004339218	-0.010204315	0.004148483	-0.257568359	0.571777344	-0.969482422	891.52	1.643754022	3.684086967	-115.1817217	-69
56649	0	-0.023620605	0.012512207	0.400085449	0.999999046	6.87E-05	-0.00033474	4.20E-05	-0.590515137	0.312805176	10.00213623	0.003433228	-0.016736985	0.002098084	-0.257324219	0.571533203	-0.972412109	891.54	1.648662491	3.645766704	-115.1889665	-69
56650	0	-0.022863388	0.012568474	0.399427414	0.999999046	7.25E-05	-0.000354767	0.000144005	-0.571584702	0.314211845	9.985685349	0.003623962	-0.017738343	0.007200241	-0.257568359	0.571777344	-0.969482422	891.64	1.654798239	3.604794486	-115.1842926	-69
56651	0	-0.022216797	0.012756348	0.399169922	0.999999046	4.20E-05	-0.000510216	9.16E-05	-0.555419922	0.318908691	9.979248047	0.002098084	-0.025510789	0.004577637	-0.257568359	0.571777344	-0.966552734	891.58	1.657081109	3.546151461	-115.1856666	-69
56652	0	-0.021988869	0.012000084	0.400472641	0.999999046	-3.72E-05	-0.000404358	9.92E-05	-0.549721718	0.300002098	10.01181602	-0.001859665	-0.020217896	0.004959107	-0.260009766	0.571777344	-0.966552734	891.58	1.650381231	3.499576043	-115.1869104	-69
56653	0	-0.021484375	0.011657715	0.401062012	0.999999046	3.81E-05	-0.000288963	0.000148773	-0.537109375	0.291442871	10.02655029	0.001907349	-0.014448166	0.00743866	-0.257568359	0.571777344	-0.969482422	891.6	1.652683079	3.466012533	-115.180607	-69
56654	0	-0.022470474	0.012121201	0.399974823	0.999999046	-0.000135422	-0.000534058	9.16E-05	-0.561761856	0.303030014	9.999370575	-0.006771088	-0.026702882	0.004577637	-0.262451172	0.571777344	-0.963378906	891.54	1.63466562	3.404587247	-115.1839291	-69
56655	0	-0.022033691	0.011779785	0.398864746	0.999999046	-0.000156403	-0.000479698	-1.53E-05	-0.550842285	0.294494629	9.971618652	-0.00782013	-0.02398491	-0.000762939	-0.262451172	0.571777344	-0.963378906	891.64	1.613548243	3.349761212	-115.1987813	-69
56656	0	-0.021651268	0.012020111	0.398949623	0.999999046	-7.15E-05	-0.000379562	0.000105858	-0.5412817	0.300502777	9.973740578	-0.003576279	-0.018978119	0.005292893	-0.262207031	0.571777344	-0.966308594	891.58	1.603026925	3.306037437	-115.1990023	-69
56657	0	-0.020568848	0.013061523	0.399475098	0.999999046	-9.54E-05	-0.00039959	3.81E-06	-0.514221191	0.326538086	9.986877441	-0.004768372	-0.019979477	0.000190735	-0.262451172	0.571777344	-0.963378906	891.54	1.589185955	3.260329097	-115.2106574	-69
56658	0	-0.0209198	0.011702538	0.400897026	0.999999046	-0.000175476	-0.000432968	9.54E-05	-0.522994995	0.292563438	10.02242565	-0.008773804	-0.021648408	0.004768372	-0.262451172	0.571777344	-0.960449219	891.64	1.566780512	3.210518936	-115.2115372	-68
56659	0	-0.020568848	0.010742188	0.399414063	0.999999046	1.53E-05	-0.000300407	-3.05E-05	-0.514221191	0.268554688	9.985351563	0.000762939	-0.015020371	-0.001525879	-0.262451172	0.571777344	-0.963378906	891.52	1.565430387	3.176305613	-115.2261676	-68
56660	0	-0.020451546	0.011118889	0.399730682	0.999999046	0.000109673	-9.54E-05	-0.000100136	-0.511288643	0.277972221	9.993267059	0.005483627	-0.004768372	-0.00500679	-0.262451172	0.571777344	-0.960449219	891.58	1.574497963	3.165822154	-115.2478508	-69
56661	0	-0.019897461	0.011779785	0.397460938	0.999999046	0.000198364	1.24E-05	-3.81E-06	-0.497436523	0.294494629	9.936523438	0.009918213	0.000619888	-0.000190735	-0.262207031	0.571777344	-0.969238281	891.54	1.594391394	3.167388019	-115.2581728	-68
56662	0	-0.021493912	0.011633873	0.402093887	0.999999046	0.000226974	-0.000312805	0.000114441	-0.537347794	0.290846825	10.05234718	0.011348725	-0.015640259	0.005722046	-0.264648438	0.572021484	-0.963378906	891.58	1.618261914	3.131399005	-115.2569522	-68
56663	0	-0.020385742	0.011047363	0.401611328	0.999999046	8.39E-05	-0.000430107	-3.81E-05	-0.509643555	0.276184082	10.0402832	0.004196167	-0.021505357	-0.001907349	-0.264648438	0.569824219	-0.963134766	891.58	1.624740747	3.082495911	-115.2737194	-68
56664	0	-0.020347595	0.0117836	0.399612427	0.999999046	1.43E-05	-0.000356674	-3.81E-05	-0.50868988	0.294589996	9.990310669	0.000715256	-0.01783371	-0.001907349	-0.264404297	0.569580078	-0.968994141	891.58	1.623279486	3.042053089	-115.2898059	-68
56665	0	-0.020202637	0.011901855	0.399719238	0.999999046	-1.14E-05	-0.000342369	3.81E-05	-0.505065918	0.297546387	9.992980957	-0.000572205	-0.017118454	0.001907349	-0.267089844	0.572021484	-0.960205078	891.58	1.619359054	3.003053957	-115.2974677	-68
56666	0	-0.018463135	0.013236046	0.399487495	0.999999046	-5.53E-05	-0.00037384	-2.29E-05	-0.461578369	0.330901146	9.987187386	-0.002765656	-0.018692017	-0.001144409	-0.267089844	0.572021484	-0.963134766	891.58	1.610134318	2.960624202	-115.311812	-68
56667	0	-0.017822266	0.012573242	0.399414063	0.999999046	-0.000160217	-0.000239372	3.05E-05	-0.445556641	0.314331055	9.985351563	-0.008010864	-0.011968613	0.001525879	-0.267089844	0.572021484	-0.966064453	891.6	1.589288304	2.933383948	-115.3195043	-68
56668	0	-0.018912315	0.013056755	0.398694038	0.999999046	-5.44E-05	-0.000268936	3.34E-05	-0.472807884	0.326418877	9.96735096	-0.002717972	-0.013446808	0.00166893	-0.264648438	0.569824219	-0.963134766	891.58	1.580675926	2.902775462	-115.3256414	-68
56669	0	-0.019470215	0.010925293	0.400939941	0.999999046	-3.81E-05	-0.000369072	3.05E-05	-0.486755371	0.273132324	10.02349854	-0.001907349	-0.018453598	0.001525879	-0.26953125	0.572021484	-0.960205078	891.6	1.573863816	2.860765787	-115.3347577	-68
56670	0	-0.019358635	0.010834694	0.398330688	0.999999046	-4.77E-05	-0.000473022	-2.00E-05	-0.483965874	0.270867348	9.958267212	-0.002384186	-0.023651124	-0.001001358	-0.267089844	0.569824219	-0.962890625	891.64	1.565642914	2.807082972	-115.348369	-68
56671	0	-0.018249512	0.01171875	0.396850586	0.999999046	-0.000106812	-0.000304222	4.20E-05	-0.456237793	0.29296875	9.921264648	-0.005340576	-0.015211106	0.002098084	-0.269287109	0.569824219	-0.965820313	891.52	1.55105407	2.772580018	-115.3558172	-68
56672	0	-0.017823219	0.011573792	0.39796257	0.999999046	-2.19E-05	-0.000337601	0.000102043	-0.445580482	0.289344788	9.949064255	-0.001096725	-0.016880036	0.005102158	-0.26953125	0.572021484	-0.960205078	891.54	1.546546212	2.734093785	-115.3552414	-68
56673	0	-0.017150879	0.011169434	0.400695801	0.999999046	-4.96E-05	-0.000239372	0.000133514	-0.428771973	0.27923584	10.01739502	-0.002479553	-0.011968613	0.00667572	-0.26953125	0.572021484	-0.960205078	891.54	1.539053515	2.706761809	-115.3506152	-68
56674	0	-0.018054962	0.011744499	0.398569107	0.999999046	0.000196457	-9.35E-05	-0.000145912	-0.451374054	0.29361248	9.964227676	0.009822846	-0.004673004	-0.007295609	-0.271728516	0.570068359	-0.962646484	891.66	1.55829534	2.697068585	-115.3797476	-68
56675	0	-0.017089844	0.010986328	0.395935059	0.999999046	0.000495911	0.000142097	-2.29E-05	-0.427246094	0.274658203	9.898376465	0.024795533	0.007104874	-0.001144409	-0.271728516	0.570068359	-0.962646484	891.66	1.612543459	2.714005787	-115.3937164	-68
56676	0	-0.015737534	0.012353897	0.395795822	0.999999046	0.000384331	0.00037384	6.68E-06	-0.393438339	0.308847427	9.894895554	0.019216538	0.018692017	0.000333786	-0.271728516	0.567871094	-0.962646484	891.6	1.654237026	2.757347009	-115.4046153	-68
56677	0	-0.017211914	0.013061523	0.402648926	0.999999046	-1.53E-05	0.000191689	0.000102997	-0.430297852	0.326538086	10.06622314	-0.000762939	0.009584427	0.005149841	-0.269287109	0.569824219	-0.962890625	891.52	1.650696551	2.779498189	-115.4025162	-68
56678	0	-0.019133568	0.012320518	0.401908875	0.999999046	-0.000150681	0.000102997	6.39E-05	-0.478339195	0.308012962	10.04772186	-0.007534027	0.005149841	0.003194809	-0.269287109	0.569824219	-0.965820313	891.58	1.631419684	2.791698926	-115.4056532	-68
56679	0	-0.019714355	0.010864258	0.40020752	0.999999046	-0.000141144	8.11E-05	0.000137329	-0.492858887	0.271606445	10.00518799	-0.00705719	0.004053116	0.006866455	-0.271728516	0.570068359	-0.965576172	891.52	1.613587668	2.80125453	-115.4027948	-68
56680	0	-0.019471169	0.010633469	0.400450706	0.999999046	8.58E-06	0.000326157	0.000141144	-0.486779213	0.265836716	10.01126766	0.000429153	0.016307831	0.00705719	-0.26953125	0.574462891	-0.963134766	891.48	1.612925722	2.838962723	-115.3953883	-68
56681	0	-0.01763916	0.012023926	0.398620605	0.999999046	9.16E-05	0.00024128	0.00019455	-0.440979004	0.300598145	9.965515137	0.004577637	0.01206398	0.009727478	-0.267089844	0.569824219	-0.962890625	891.54	1.622084639	2.86675939	-115.3826336	-68
56682	0	-0.018620491	0.012226105	0.399402618	0.999999046	1.53E-05	0.000255585	9.82E-05	-0.465512276	0.305652618	9.98506546	0.000762939	0.012779236	0.004911423	-0.26953125	0.572021484	-0.965820313	891.58	1.621976036	2.896528097	-115.3826709	-68
56683	0	-0.018737793	0.013000488	0.397766113	0.999999046	3.05E-05	0.000248909	7.25E-05	-0.468444824	0.325012207	9.944152832	0.001525879	0.01244545	0.003623962	-0.26953125	0.572021484	-0.965820313	891.54	1.623531284	2.925637119	-115.3860617	-68
56684	0	-0.020093918	0.01241684	0.399585724	0.999999046	0.00014782	-3.62E-05	7.63E-05	-0.502347946	0.31042099	9.989643097	0.007390976	-0.001811981	0.003814697	-0.266845703	0.567626953	-0.962890625	891.58	1.638536213	2.922146742	-115.389206	-68
56685	0	-0.020568848	0.012329102	0.399291992	0.999999046	0.000259399	4.67E-05	5.34E-05	-0.514221191	0.308227539	9.982299805	0.012969971	0.002336502	0.002670288	-0.267089844	0.569824219	-0.962890625	891.6	1.666230781	2.928336068	-115.3937429	-69
56686	0	-0.021092415	0.013332367	0.400503159	0.999999046	7.44E-05	6.48E-05	0.000166893	-0.527310371	0.333309174	10.01257896	0.00371933	0.003242493	0.00834465	-0.267089844	0.572021484	-0.963134766	891.48	1.673454585	2.9363412	-115.3844196	-69
56687	0	-0.020385742	0.012939453	0.398986816	0.999999046	-0.000118256	0.000180244	0.000133514	-0.509643555	0.323486328	9.97467041	-0.005912781	0.009012222	0.00667572	-0.266845703	0.567626953	-0.968505859	891.58	1.658462443	2.95775433	-115.3811755	-69
56688	0	-0.019367218	0.01138401	0.401118279	0.999999046	-5.44E-05	0.000150681	0.000118256	-0.48418045	0.284600258	10.02795696	-0.002717972	0.007534027	0.005912781	-0.264648438	0.569824219	-0.963134766	891.54	1.650662955	2.975846221	-115.3768464	-69
56689	0	-0.019836426	0.010742188	0.399414063	0.999999046	-4.96E-05	8.87E-05	0.000110626	-0.495910645	0.268554688	9.985351563	-0.002479553	0.004434586	0.005531311	-0.264648438	0.569824219	-0.963134766	891.6	1.643287968	2.986897291	-115.373988	-69
56690	0	-0.019049644	0.01143837	0.398556709	0.999999046	0.000217438	0.000272751	2.67E-05	-0.476241112	0.285959244	9.963917732	0.010871887	0.013637543	0.001335144	-0.264648438	0.572021484	-0.963378906	891.58	1.666017198	3.019300817	-115.3794155	-69
56691	0	-0.020019531	0.012756348	0.399108887	0.999999046	4.96E-05	0.000432014	4.20E-05	-0.500488281	0.318908691	9.977722168	0.002479553	0.021600724	0.002098084	-0.262207031	0.569580078	-0.968994141	891.58	1.669663442	3.069926024	-115.3824416	-69
56692	0	-0.023356438	0.012248039	0.402199745	0.999999046	0.000109673	0.000213623	0.000183105	-0.583910942	0.306200981	10.05499363	0.005483627	0.010681153	0.009155274	-0.259765625	0.569580078	-0.966308594	891.6	1.681026816	3.095234882	-115.368089	-69
56693	0	-0.022827148	0.012084961	0.40020752	0.999999046	6.10E-05	0.000142097	4.58E-05	-0.570678711	0.302124023	10.00518799	0.003051758	0.007104874	0.002288818	-0.262207031	0.569580078	-0.963134766	891.58	1.685942879	3.112946356	-115.3724423	-69
56694	0	-0.022216797	0.012939453	0.398925781	0.999999046	0.000209808	0.000175476	5.72E-05	-0.555419922	0.323486328	9.973144531	0.010490418	0.008773804	0.002861023	-0.264648438	0.572021484	-0.966064453	891.58	1.708017269	3.134541205	-115.3768925	-69
56695	0	-0.021296501	0.014369965	0.39944458	0.999998093	0.00017643	0.000291824	2.86E-06	-0.532412529	0.359249115	9.986114502	0.008821488	0.014591217	0.000143051	-0.259765625	0.569580078	-0.963378906	891.64	1.726048466	3.169691682	-115.3836675	-69
56696	0	-0.021237373	0.014215469	0.399619102	0.999999046	8.30E-05	0.000164032	5.25E-05	-0.530934334	0.355386734	9.990477562	0.004148483	0.008201599	0.002622604	-0.259521484	0.567382813	-0.971923828	891.66	1.733736499	3.190057706	-115.3868429	-69
56697	0	-0.021728516	0.01348877	0.399047852	0.999999046	-1.91E-05	0.000123024	-3.05E-05	-0.543212891	0.337219238	9.976196289	-0.000953674	0.006151199	-0.001525879	-0.259765625	0.567382813	-0.966064453	891.66	1.729231928	3.206055538	-115.3999196	-69
56698	0	-0.022621155	0.012372971	0.400140762	0.999999046	0.000101089	0.000164032	4.20E-05	-0.56552887	0.309324265	10.00351906	0.005054474	0.008201599	0.002098084	-0.259765625	0.567382813	-0.968994141	891.6	1.738949982	3.22657659	-115.4049514	-69
56699	0	-0.022888184	0.01184082	0.400268555	0.999999046	7.63E-05	0.000100136	7.25E-05	-0.57220459	0.296020508	10.00671387	0.003814697	0.00500679	0.003623962	-0.259765625	0.569580078	-0.966308594	891.64	1.745964403	3.239754766	-115.4056077	-70
56700	0	-0.022966385	0.012759209	0.399773598	0.999999046	0.000121117	0.000123978	8.77E-05	-0.574159622	0.318980217	9.994339943	0.006055832	0.006198883	0.004386902	-0.259521484	0.567138672	-0.974853516	891.54	1.758215413	3.255689348	-115.4061731	-70
56701	0	-0.022766113	0.012145996	0.398925781	0.999999046	4.58E-05	-3.72E-05	7.63E-05	-0.569152832	0.303649902	9.973144531	0.002288818	-0.001859665	0.003814697	-0.259765625	0.567382813	-0.968994141	891.58	1.761691528	3.253268059	-115.4084308	-69
56702	0	-0.022306442	0.012612343	0.399536133	0.999999046	0.000148773	0.000188828	9.44E-05	-0.557661057	0.315308571	9.98840332	0.00743866	0.009441376	0.004720688	-0.259765625	0.567382813	-0.968994141	891.48	1.777120734	3.276708602	-115.4081493	-69
56703	0	-0.022644043	0.012878418	0.400939941	0.999999046	6.48E-05	0.000119209	7.25E-05	-0.566101074	0.321960449	10.02349854	0.003242493	0.005960465	0.003623962	-0.259765625	0.567382813	-0.966064453	891.58	1.782768404	3.292294894	-115.4107347	-69
56704	0	-0.023164749	0.012688637	0.400627136	0.999999046	0.00011158	0.000200272	2.96E-05	-0.579118729	0.317215919	10.01567841	0.005578995	0.01001358	0.001478195	-0.257324219	0.567138672	-0.968994141	891.58	1.793488303	3.317382565	-115.4157935	-70
56705	0	-0.023925781	0.012939453	0.40032959	0.999999046	0.0001297	0.000214577	6.87E-05	-0.598144531	0.323486328	10.00823975	0.006484985	0.010728836	0.003433228	-0.255126953	0.569335938	-0.966552734	891.54	1.80654164	3.344061685	-115.412919	-70
56706	0	-0.022872925	0.013777733	0.39689827	0.999999046	1.14E-05	0.000444412	-1.24E-05	-0.57182312	0.344443321	9.922456741	0.000572205	0.022220612	-0.000619888	-0.254882813	0.567138672	-0.975097656	891.54	1.805577416	3.397393073	-115.4210566	-70
56707	0	-0.023925781	0.01361084	0.399597168	0.999999046	8.77E-05	0.000424385	5.72E-05	-0.598144531	0.340270996	9.989929199	0.004386902	0.021219254	0.002861023	-0.254882813	0.567138672	-0.972167969	891.46	1.813840258	3.448240623	-115.4221335	-70
56708	0	-0.024874687	0.012706757	0.40103817	0.999999046	2.96E-05	0.000102997	0.000202179	-0.62186718	0.317668915	10.02595425	0.001478195	0.005149841	0.010108948	-0.254882813	0.567138672	-0.969238281	891.64	1.816337397	3.46183764	-115.4081569	-70
56709	0	-0.025756836	0.012512207	0.40020752	0.999999046	0.000141144	9.63E-05	0.000152588	-0.643920898	0.312805176	10.00518799	0.00705719	0.004816055	0.007629395	-0.252441406	0.569335938	-0.972412109	891.58	1.831243701	3.474975699	-115.3962213	-70
56710	0	-0.025218964	0.013425827	0.399770737	0.999999046	8.01E-05	0.000148773	0.000121117	-0.630474091	0.335645676	9.994268417	0.004005432	0.00743866	0.006055832	-0.254882813	0.567138672	-0.972167969	891.6	1.838949773	3.494325457	-115.3925089	-70
56711	0	-0.024475098	0.013671875	0.399169922	0.999999046	0.000102997	0.00011158	8.39E-05	-0.611877441	0.341796875	9.979248047	0.005149841	0.005578995	0.004196167	-0.252441406	0.566894531	-0.975097656	891.6	1.849028771	3.509599228	-115.3908537	-70
56712	0	-0.024561882	0.013269424	0.400198936	0.999999046	1.43E-05	-1.53E-05	0.000167847	-0.61404705	0.331735611	10.00497341	0.000715256	-0.000762939	0.008392334	-0.252441406	0.567138672	-0.966552734	891.54	1.849494798	3.510076742	-115.3797411	-70
56713	0	-0.025024414	0.014221191	0.40045166	0.999999046	5.72E-05	-1.43E-05	8.01E-05	-0.625610352	0.355529785	10.0112915	0.002861023	-0.000715256	0.004005432	-0.254882813	0.567138672	-0.972167969	891.64	1.85429653	3.511049316	-115.3820566	-70
56714	0	-0.026169777	0.015125275	0.403928757	0.999999046	2.86E-05	-0.000289917	0.000114441	-0.654244423	0.378131866	10.09821892	0.001430511	-0.01449585	0.005722046	-0.252441406	0.569335938	-0.972412109	891.56	1.856078191	3.480437406	-115.3765654	-70
56715	0	-0.025756836	0.013549805	0.401611328	0.999999046	-3.05E-05	-0.000319481	9.92E-05	-0.643920898	0.338745117	10.0402832	-0.001525879	-0.015974045	0.004959107	-0.254882813	0.567138672	-0.969238281	891.6	1.850964018	3.446596927	-115.3767452	-70
56716	0	-0.026047707	0.013163567	0.400407791	0.999999046	-0.000149727	-0.000511169	0.000125885	-0.651192665	0.329089165	10.01019478	-0.007486344	-0.025558473	0.006294251	-0.254882813	0.567138672	-0.969238281	891.64	1.832312625	3.390833377	-115.373757	-70
56717	0	-0.024780273	0.013000488	0.398620605	0.999999046	-0.000164032	-0.000555992	0.000110626	-0.619506836	0.325012207	9.965515137	-0.0082016	-0.027799608	0.005531311	-0.254882813	0.567138672	-0.972167969	891.64	1.811892664	3.330079661	-115.3719233	-70
56718	0	-0.023113251	0.012813568	0.398589134	0.999999046	-0.000146866	-0.000530243	5.25E-05	-0.577831268	0.320339203	9.964728355	-0.007343293	-0.026512147	0.002622605	-0.257324219	0.567138672	-0.971923828	891.6	1.793041394	3.272506158	-115.3787774	-70
56719	0	-0.022949219	0.013061523	0.400146484	0.999999046	-0.000144958	-0.000628471	0.000125885	-0.573730469	0.326538086	10.00366211	-0.007247925	-0.031423571	0.006294251	-0.257324219	0.567138672	-0.968994141	891.6	1.774872952	3.20344716	-115.3762411	-70
56720	0	-0.022277832	0.012939453	0.399841309	0.999999046	-8.30E-05	-0.000492096	0.000125885	-0.556945801	0.323486328	9.996032715	-0.004148483	-0.024604798	0.006294251	-0.259765625	0.569580078	-0.971923828	891.58	1.763832714	3.150027855	-115.3740364	-70
56721	0	-0.022521973	0.012939453	0.399230957	0.999999046	-7.63E-06	-0.000502586	0.000141144	-0.563049316	0.323486328	9.980773926	-0.00038147	-0.025129319	0.00705719	-0.257324219	0.567138672	-0.971923828	891.6	1.761524097	3.095406251	-115.3675668	-70
56722	0	-0.022665024	0.012695313	0.400352478	0.999999046	-4.96E-05	-0.000469208	0.000164032	-0.566625595	0.317382813	10.00881195	-0.002479553	-0.023460389	0.008201599	-0.259765625	0.569580078	-0.966308594	891.54	1.754540909	3.044601716	-115.3589164	-70
56723	0	-0.022338867	0.01184082	0.401062012	0.999999046	-0.000114441	-0.000559807	0.000106812	-0.55847168	0.296020508	10.02655029	-0.005722046	-0.027990343	0.005340576	-0.262207031	0.569580078	-0.966064453	891.56	1.739705956	2.983692607	-115.3593592	-69
56724	0	-0.021216393	0.012485504	0.400417328	0.999999046	-9.44E-05	-0.000593185	0.000124931	-0.530409813	0.312137604	10.0104332	-0.004720688	-0.029659273	0.006246567	-0.259765625	0.569580078	-0.969238281	891.58	1.727261355	2.918934992	-115.3535567	-69
56725	0	-0.021057129	0.012695313	0.399291992	0.999999046	-0.000114441	-0.000460625	-1.53E-05	-0.526428223	0.317382813	9.982299805	-0.005722046	-0.023031236	-0.000762939	-0.264404297	0.569580078	-0.968994141	891.5	1.71173441	2.869895423	-115.3686696	-69
56726	0	-0.020201683	0.012236595	0.399129868	0.999999046	-0.000110626	-0.000452042	0.000124931	-0.505042076	0.305914879	9.978246689	-0.005531311	-0.022602082	0.006246567	-0.264648438	0.569824219	-0.966064453	891.6	1.697446367	2.821384152	-115.3668518	-69
56727	0	-0.019104004	0.01184082	0.399780273	0.999999046	-0.000106812	-0.000319481	8.77E-05	-0.477600098	0.296020508	9.994506836	-0.005340576	-0.015974045	0.004386902	-0.262207031	0.569580078	-0.963134766	891.58	1.683383916	2.788169352	-115.3649851	-69
56728	0	-0.020432472	0.012369156	0.400100708	0.999999046	-9.25E-05	-0.000259399	-1.53E-05	-0.510811806	0.309228897	10.0025177	-0.00462532	-0.012969971	-0.000762939	-0.264404297	0.569580078	-0.968994141	891.6	1.670402534	2.762245173	-115.3775553	-69
56729	0	-0.018676758	0.012573242	0.398193359	0.999999046	1.14E-05	-6.01E-05	1.14E-05	-0.466918945	0.314331055	9.954833984	0.000572205	-0.003004074	0.000572205	-0.266845703	0.569824219	-0.965820313	891.54	1.669536362	2.759047728	-115.3893324	-69
56730	0	-0.020886421	0.011667252	0.401613235	0.999999046	-7.63E-06	-0.000167847	0.000221252	-0.52216053	0.29168129	10.04033089	-0.00038147	-0.008392334	0.011062622	-0.264648438	0.572021484	-0.966064453	891.54	1.667598315	2.742900116	-115.3726566	-69
56731	0	-0.021057129	0.012145996	0.401245117	0.999999046	-7.63E-05	-0.000479698	6.10E-05	-0.526428223	0.303649902	10.03112793	-0.003814697	-0.02398491	0.003051758	-0.267089844	0.569824219	-0.962890625	891.54	1.656857962	2.691670718	-115.3793039	-69
56732	0	-0.019818306	0.012147903	0.399007797	0.999999046	-9.25E-05	-0.000419617	4.58E-05	-0.495457649	0.303697586	9.975194931	-0.004625321	-0.020980836	0.002288818	-0.266845703	0.569824219	-0.965820313	891.66	1.644198521	2.647436431	-115.3862922	-69
56733	0	-0.018859863	0.01184082	0.400512695	0.999999046	3.05E-05	-0.000315666	1.91E-05	-0.471496582	0.296020508	10.01281738	0.001525879	-0.01578331	0.000953674	-0.269287109	0.569824219	-0.962890625	891.64	1.645506199	2.615221277	-115.3985022	-69
56734	0	-0.017874718	0.012537003	0.399424553	0.999999046	-0.000204086	-0.00044632	0	-0.446867943	0.313425064	9.985613823	-0.010204316	-0.02231598	0	-0.26953125	0.572021484	-0.965820313	891.54	1.619849005	2.568089922	-115.4111278	-69
56735	0	-0.017272949	0.012268066	0.400512695	0.999999046	-0.000118256	-0.00026989	0.000114441	-0.43182373	0.30670166	10.01281738	-0.005912781	-0.013494492	0.005722046	-0.267089844	0.570068359	-0.963134766	891.64	1.604669588	2.540767722	-115.4074022	-69
56736	0	-0.017725945	0.011872292	0.399731636	0.999999046	-4.77E-06	-0.00025177	-0.000107765	-0.443148613	0.296807289	9.993290901	-0.000238419	-0.012588501	-0.00538826	-0.26953125	0.572265625	-0.966064453	891.6	1.601379161	2.51624143	-115.4303106	-69
56737	0	-0.018310547	0.010986328	0.401367188	0.999999046	1.14E-05	-0.00020504	4.58E-05	-0.457763672	0.274658203	10.03417969	0.000572205	-0.010251999	0.002288818	-0.26953125	0.570068359	-0.966064453	891.58	1.600692115	2.496618001	-115.4366461	-69
56738	0	-0.018572807	0.011057854	0.399786949	0.999999046	3.05E-05	-0.000234604	7.92E-05	-0.464320183	0.276446342	9.994673729	0.001525879	-0.011730194	0.003957748	-0.26953125	0.570068359	-0.963134766	891.58	1.602323212	2.473566644	-115.4385359	-69
56739	0	-0.01776123	0.011474609	0.396728516	0.999999046	-4.96E-05	-0.000102043	0.000102997	-0.444030762	0.286865234	9.918212891	-0.002479553	-0.005102158	0.005149841	-0.26953125	0.570068359	-0.963134766	891.6	1.594904869	2.465660478	-115.4372649	-69
56740	0	-0.016944885	0.011926651	0.39661026	0.999999046	0.000100136	0.000116348	5.25E-05	-0.423622131	0.298166275	9.9152565	0.00500679	0.005817413	0.002622604	-0.26953125	0.570068359	-0.966064453	891.64	1.604442995	2.482929774	-115.4415196	-69
56741	0	-0.016418457	0.012329102	0.399291992	0.999999046	0.0001297	-2.57E-05	0.000148773	-0.410461426	0.308227539	9.982299805	0.006484985	-0.00128746	0.00743866	-0.26953125	0.572265625	-0.966064453	891.5	1.61786019	2.483572365	-115.4334725	-69
56742	0	-0.017248154	0.011949539	0.400204659	0.999999046	7.63E-05	0.000137329	0.000124931	-0.431203842	0.29873848	10.00511646	0.003814697	0.006866455	0.006246567	-0.26953125	0.570068359	-0.960205078	891.64	1.625067016	2.502970791	-115.4297157	-70
56743	0	-0.018371582	0.011657715	0.401855469	0.999999046	5.34E-05	0.000157356	8.01E-05	-0.459289551	0.291442871	10.04638672	0.002670288	0.007867813	0.004005432	-0.26953125	0.567871094	-0.959960938	891.64	1.629414121	2.524854887	-115.4333277	-69
56744	0	-0.019960403	0.012435913	0.400626183	0.999999046	6.58E-05	0.00028801	7.92E-05	-0.499010086	0.310897827	10.01565456	0.003290176	0.014400482	0.003957748	-0.267089844	0.570068359	-0.963134766	891.56	1.63522455	2.561829565	-115.4319298	-70
56745	0	-0.018615723	0.011962891	0.399291992	0.999999046	9.54E-05	0.000180244	-1.53E-05	-0.465393066	0.299072266	9.982299805	0.004768372	0.009012222	-0.000762939	-0.267089844	0.569824219	-0.966064453	891.56	1.643920785	2.586809296	-115.4424568	-70
56746	0	-0.017110825	0.012525558	0.397330284	0.999999046	5.53E-05	0.000358582	0.000144005	-0.427770615	0.313138962	9.933257103	0.002765656	0.017929078	0.007200241	-0.267089844	0.569824219	-0.966064453	891.58	1.648906329	2.631650998	-115.435507	-69
56747	0	-0.018859863	0.011352539	0.402038574	0.999999046	0.000244141	0.000218391	0.000255585	-0.471496582	0.283813477	10.05096436	0.012207032	0.010919571	0.012779236	-0.264648438	0.572021484	-0.966308594	891.64	1.676067532	2.660083237	-115.411244	-70
56748	0	-0.020310402	0.011557579	0.399520874	0.999999046	-6.68E-06	0.000259399	0.000132561	-0.507760048	0.288939476	9.988021851	-0.000333786	0.012969971	0.006628037	-0.264648438	0.567626953	-0.963134766	891.6	1.673808	2.693709158	-115.4057238	-70
56749	0	-0.020751953	0.012207031	0.400146484	0.999999046	1.91E-05	0.000237465	-7.63E-06	-0.518798828	0.305175781	10.00366211	0.000953674	0.011873245	-0.00038147	-0.264648438	0.567626953	-0.963134766	891.58	1.673737628	2.725387953	-115.4170456	-69
56750	0	-0.020819664	0.012831688	0.398793221	0.999999046	5.53E-05	0.000240326	9.16E-05	-0.5204916	0.320792198	9.969830513	0.002765656	0.012016297	0.004577637	-0.264648438	0.569824219	-0.968994141	891.56	1.67839214	2.757151603	-115.4162972	-70
56751	0	-0.020080566	0.012878418	0.399963379	0.999999046	9.16E-05	7.72E-05	3.43E-05	-0.50201416	0.321960449	9.999084473	0.004577637	0.003862381	0.001716614	-0.264648438	0.569824219	-0.968994141	891.54	1.686888243	2.770463432	-115.4228202	-70
56752	0	-0.019469261	0.012524605	0.398431778	0.999999046	7.92E-05	0.00019455	9.06E-05	-0.486731529	0.31311512	9.960794449	0.003957748	0.009727478	0.004529953	-0.262207031	0.569824219	-0.969238281	891.58	1.694308401	2.797024536	-115.4190363	-70
56753	0	-0.020629883	0.012634277	0.40032959	0.999999046	4.96E-05	0.000287056	2.67E-05	-0.51574707	0.315856934	10.00823975	0.002479553	0.014352799	0.001335144	-0.262207031	0.569824219	-0.966308594	891.7	1.698007537	2.834444907	-115.4230956	-70
56754	0	-0.021529198	0.012002945	0.399460793	0.999999046	6.68E-05	0.000259399	9.16E-05	-0.538229942	0.300073624	9.986519814	0.00333786	0.012969971	0.004577637	-0.262207031	0.567626953	-0.966064453	891.6	1.704012168	2.868557248	-115.4227522	-70
56755	0	-0.022216797	0.011962891	0.401245117	0.999999046	0.000137329	0.000153542	4.96E-05	-0.555419922	0.299072266	10.03112793	0.006866455	0.007677078	0.002479553	-0.262207031	0.567626953	-0.968994141	891.64	1.717816834	2.890784326	-115.4281294	-70
56756	0	-0.021361351	0.012562752	0.400074959	0.999999046	0.000159264	0.000190735	0.000144005	-0.534033775	0.314068794	10.00187397	0.007963181	0.009536743	0.007200241	-0.262207031	0.569824219	-0.963378906	891.54	1.734690511	2.916992473	-115.4209129	-70
56757	0	-0.02142334	0.012329102	0.398620605	0.999999046	4.20E-05	0.000180244	2.67E-05	-0.535583496	0.308227539	9.965515137	0.002098084	0.009012222	0.001335144	-0.262207031	0.569824219	-0.966308594	891.64	1.737420789	2.942446916	-115.4279819	-70
56758	0	-0.02132225	0.012607574	0.400381088	0.999999046	0.000146866	0.000291824	8.77E-05	-0.533056259	0.315189362	10.00952721	0.007343292	0.014591217	0.004386902	-0.259765625	0.569580078	-0.969238281	891.56	1.752548353	2.980491974	-115.4246557	-70
